timestamp,accelerationX,accelerationY,accelerationZ
2025-01-15T10:00:00.000Z,-0.01814,-0.020178,-1.072017
2025-01-15T10:00:00.040Z,-0.005512,-0.001675,-1.162161
2025-01-15T10:00:00.080Z,-0.006595,0.044991,-0.98958
2025-01-15T10:00:00.120Z,0.043765,-0.024563,-1.002754
2025-01-15T10:00:00.160Z,0.001248,-0.022798,-1.066747
2025-01-15T10:00:00.200Z,0.010525,-0.052029,-1.294403
2025-01-15T10:00:00.240Z,0.009797,-0.000352,-1.086261
2025-01-15T10:00:00.280Z,0.002539,0.046648,-1.142478
2025-01-15T10:00:00.320Z,0.028896,-0.012619,-1.230966
2025-01-15T10:00:00.360Z,-0.00533,-0.013181,-1.372897
2025-01-15T10:00:00.400Z,0.012186,-0.009432,-1.011709
2025-01-15T10:00:00.440Z,0.001124,0.032846,-0.704886
2025-01-15T10:00:00.480Z,0.022911,0.032168,-1.018517
2025-01-15T10:00:00.520Z,0.008619,-0.001767,-1.178855
2025-01-15T10:00:00.560Z,-0.003374,-0.013367,-1.1126
2025-01-15T10:00:00.600Z,0.00017,0.015637,-0.54593
2025-01-15T10:00:00.640Z,0.017686,0.01021,-1.140008
2025-01-15T10:00:00.680Z,-0.018433,0.008518,-1.475145
2025-01-15T10:00:00.720Z,-0.018307,-0.01658,-1.342424
2025-01-15T10:00:00.760Z,0.025365,0.011126,-1.391457
2025-01-15T10:00:00.800Z,0.030405,0.023577,-0.666605
2025-01-15T10:00:00.840Z,-0.051159,0.006956,-1.356935
2025-01-15T10:00:00.880Z,-0.024217,0.004491,-0.842853
2025-01-15T10:00:00.920Z,0.026094,0.010669,-0.574308
2025-01-15T10:00:00.960Z,-0.46197,-0.032915,-1.124969
2025-01-15T10:00:01.000Z,0.003525,-0.537819,-1.328498
2025-01-15T10:00:01.040Z,-0.067837,-0.01406,-1.518401
2025-01-15T10:00:01.080Z,-0.020632,0.010638,-1.542232
2025-01-15T10:00:01.120Z,-0.008547,-0.011844,-1.069136
2025-01-15T10:00:01.160Z,-0.004381,-0.001327,-0.761003
2025-01-15T10:00:01.200Z,0.012915,-0.02417,-1.25471
2025-01-15T10:00:01.240Z,-0.015714,0.004683,-1.158317
2025-01-15T10:00:01.280Z,-0.003503,-0.013835,-1.219772
2025-01-15T10:00:01.320Z,0.003577,-0.005497,-1.417337
2025-01-15T10:00:01.360Z,0.018248,-0.004815,-1.131352
2025-01-15T10:00:01.400Z,-0.008251,-0.022392,-1.261666
2025-01-15T10:00:01.440Z,0.014939,0.017304,-0.783202
2025-01-15T10:00:01.480Z,-0.005697,-0.001215,-0.721507
2025-01-15T10:00:01.520Z,-0.00583,-0.017434,-1.159574
2025-01-15T10:00:01.560Z,-0.005375,0.041987,-1.370403
2025-01-15T10:00:01.600Z,-0.02493,0.008899,-0.653924
2025-01-15T10:00:01.640Z,-0.016997,-0.010297,-1.086183
2025-01-15T10:00:01.680Z,0.010939,-0.021961,-0.815674
2025-01-15T10:00:01.720Z,0.006416,-0.013603,-1.276574
2025-01-15T10:00:01.760Z,0.004881,0.000237,-0.656187
2025-01-15T10:00:01.800Z,0.024673,0.025309,-1.194689
2025-01-15T10:00:01.840Z,0.00705,-0.001506,-1.14077
2025-01-15T10:00:01.880Z,0.021826,-0.007413,-1.084591
2025-01-15T10:00:01.920Z,-0.016551,0.021733,-0.390524
2025-01-15T10:00:01.960Z,-0.006511,-0.043588,-0.731469
2025-01-15T10:00:02.000Z,-0.024425,0.007463,-1.053283
2025-01-15T10:00:02.040Z,-0.017404,-0.040816,-1.764117
2025-01-15T10:00:02.080Z,-0.009987,-0.020858,-1.001781
2025-01-15T10:00:02.120Z,0.015829,0.007318,-1.179928
2025-01-15T10:00:02.160Z,-0.017646,0.049258,-0.718242
2025-01-15T10:00:02.200Z,-0.001565,0.013031,-0.872291
2025-01-15T10:00:02.240Z,-0.010204,-0.020315,-1.557941
2025-01-15T10:00:02.280Z,0.003923,-0.01984,-1.012087
2025-01-15T10:00:02.320Z,-0.014157,0.006086,-1.708941
2025-01-15T10:00:02.360Z,0.01526,-0.029962,-0.666962
2025-01-15T10:00:02.400Z,-0.001635,-0.035119,-1.247236
2025-01-15T10:00:02.440Z,0.023239,-0.010817,-0.812478
2025-01-15T10:00:02.480Z,-0.008014,-0.027732,-0.560173
2025-01-15T10:00:02.520Z,-0.039561,0.014181,-0.859624
2025-01-15T10:00:02.560Z,0.021428,0.034315,-1.825386
2025-01-15T10:00:02.600Z,-0.003212,0.005953,-1.588302
2025-01-15T10:00:02.640Z,-0.011249,0.011071,-0.629668
2025-01-15T10:00:02.680Z,-0.02092,0.018274,-1.245453
2025-01-15T10:00:02.720Z,0.017225,-0.007032,-0.772684
2025-01-15T10:00:02.760Z,-0.059167,-0.026078,-1.022601
2025-01-15T10:00:02.800Z,-0.01217,0.003361,-1.287207
2025-01-15T10:00:02.840Z,-0.025954,0.009886,-1.501797
2025-01-15T10:00:02.880Z,-0.017536,-0.037658,-0.986429
2025-01-15T10:00:02.920Z,-0.022928,-0.034344,-0.839231
2025-01-15T10:00:02.960Z,0.000561,0.024133,-0.497694
2025-01-15T10:00:03.000Z,0.00203,-0.006679,-1.179727
2025-01-15T10:00:03.040Z,0.001409,-0.002629,-1.429519
2025-01-15T10:00:03.080Z,-0.025186,0.011628,-0.937109
2025-01-15T10:00:03.120Z,0.016085,0.023775,-0.874259
2025-01-15T10:00:03.160Z,0.003348,-0.004571,-1.051111
2025-01-15T10:00:03.200Z,0.004903,-0.024,-0.926903
2025-01-15T10:00:03.240Z,-0.024394,0.00037,-0.979426
2025-01-15T10:00:03.280Z,0.025163,0.015056,-1.420166
2025-01-15T10:00:03.320Z,-0.033222,-0.002404,-1.408374
2025-01-15T10:00:03.360Z,0.028088,-0.035743,-0.846699
2025-01-15T10:00:03.400Z,-0.001982,0.010827,-0.769195
2025-01-15T10:00:03.440Z,-0.023093,0.026673,-0.760533
2025-01-15T10:00:03.480Z,-0.011364,-0.006224,-0.709969
2025-01-15T10:00:03.520Z,-0.006337,-0.024074,-1.152261
2025-01-15T10:00:03.560Z,-0.004533,-0.016313,-1.119696
2025-01-15T10:00:03.600Z,0.010355,-0.005057,-0.961305
2025-01-15T10:00:03.640Z,-0.041181,-0.007574,-0.936042
2025-01-15T10:00:03.680Z,0.007653,-0.030059,-0.743745
2025-01-15T10:00:03.720Z,-0.026985,0.011833,-0.613818
2025-01-15T10:00:03.760Z,0.018419,0.002645,-0.903639
2025-01-15T10:00:03.800Z,0.004368,-0.006716,-1.319493
2025-01-15T10:00:03.840Z,0.002613,-0.008823,-1.194362
2025-01-15T10:00:03.880Z,0.015576,0.018939,-0.99335
2025-01-15T10:00:03.920Z,-0.018873,-0.027559,-1.252862
2025-01-15T10:00:03.960Z,-0.009543,0.012376,-0.603151
2025-01-15T10:00:04.000Z,-0.010489,0.049167,-0.578238
2025-01-15T10:00:04.040Z,0.007576,0.005699,-1.321883
2025-01-15T10:00:04.080Z,0.02922,-0.017476,-0.832284
2025-01-15T10:00:04.120Z,0.029733,-0.019203,-0.734207
2025-01-15T10:00:04.160Z,-0.01069,-0.006313,-0.605157
2025-01-15T10:00:04.200Z,-0.0229,-0.028924,-1.191464
2025-01-15T10:00:04.240Z,0.004832,-0.001988,-1.019315
2025-01-15T10:00:04.280Z,0.020186,0.014926,-0.65955
2025-01-15T10:00:04.320Z,0.003774,0.034187,-0.65371
2025-01-15T10:00:04.360Z,0.000836,0.031316,-1.473856
2025-01-15T10:00:04.400Z,-0.005487,-0.033134,-0.683128
2025-01-15T10:00:04.440Z,0.011199,0.005174,-0.994957
2025-01-15T10:00:04.480Z,0.003498,-0.024327,-0.176338
2025-01-15T10:00:04.520Z,-0.008925,0.011048,-1.261451
2025-01-15T10:00:04.560Z,-0.001086,-0.01205,-1.660519
2025-01-15T10:00:04.600Z,-0.001013,-0.04872,-1.728854
2025-01-15T10:00:04.640Z,0.006722,0.0036,-0.827047
2025-01-15T10:00:04.680Z,-0.012343,0.046087,-1.311464
2025-01-15T10:00:04.720Z,0.037086,0.047676,-0.92668
2025-01-15T10:00:04.760Z,0.006367,-0.015587,-1.072244
2025-01-15T10:00:04.800Z,-0.003926,-0.029575,-1.291872
2025-01-15T10:00:04.840Z,-0.033762,0.004035,-0.86049
2025-01-15T10:00:04.880Z,-0.028698,0.040941,-1.404354
2025-01-15T10:00:04.920Z,0.008827,0.044633,-1.290978
2025-01-15T10:00:04.960Z,0.012751,-0.023791,-1.408628
2025-01-15T10:00:05.000Z,-0.021057,-0.003209,-0.784669
2025-01-15T10:00:05.040Z,0.029087,-0.024617,-1.165152
2025-01-15T10:00:05.080Z,-0.014142,0.045626,-1.135288
2025-01-15T10:00:05.120Z,0.006027,0.015869,-0.56211
2025-01-15T10:00:05.160Z,0.011872,0.001055,-0.961704
2025-01-15T10:00:05.200Z,0.004972,0.007338,-0.997658
2025-01-15T10:00:05.240Z,0.046299,0.570102,-0.789239
2025-01-15T10:00:05.280Z,-0.033583,-0.03796,-1.365659
2025-01-15T10:00:05.320Z,0.006146,-0.005334,-0.767996
2025-01-15T10:00:05.360Z,0.006584,0.018515,-1.052005
2025-01-15T10:00:05.400Z,-0.068241,-0.025987,-1.811533
2025-01-15T10:00:05.440Z,0.046489,0.037396,-1.018621
2025-01-15T10:00:05.480Z,-0.003015,-0.024849,-1.505261
2025-01-15T10:00:05.520Z,-0.454439,0.007468,-0.480922
2025-01-15T10:00:05.560Z,-0.008609,0.00215,-0.485585
2025-01-15T10:00:05.600Z,0.03624,0.014992,-1.032867
2025-01-15T10:00:05.640Z,-0.023312,0.014203,-0.909019
2025-01-15T10:00:05.680Z,0.030231,-0.014032,-0.942472
2025-01-15T10:00:05.720Z,0.011576,-0.023763,-0.9475
2025-01-15T10:00:05.760Z,0.012755,0.017411,-1.31962
2025-01-15T10:00:05.800Z,0.014982,0.007444,-1.085676
2025-01-15T10:00:05.840Z,0.011024,0.011385,-0.71997
2025-01-15T10:00:05.880Z,-0.019285,-0.01223,-0.862684
2025-01-15T10:00:05.920Z,-0.015366,0.005543,-0.946878
2025-01-15T10:00:05.960Z,0.010458,-0.028096,-0.656335
2025-01-15T10:00:06.000Z,-0.005901,-0.022116,-1.401527
2025-01-15T10:00:06.040Z,-0.007797,-0.010068,-0.971171
2025-01-15T10:00:06.080Z,0.001629,-0.012996,-0.882371
2025-01-15T10:00:06.120Z,-0.003741,-0.031656,-1.331321
2025-01-15T10:00:06.160Z,-0.007446,0.02066,-1.658964
2025-01-15T10:00:06.200Z,-0.026575,-0.025909,-0.25574
2025-01-15T10:00:06.240Z,-0.000138,-0.033322,-1.470971
2025-01-15T10:00:06.280Z,-0.00516,-0.015518,-0.495038
2025-01-15T10:00:06.320Z,0.02465,0.017101,-0.94918
2025-01-15T10:00:06.360Z,0.007757,0.599075,-0.609488
2025-01-15T10:00:06.400Z,-0.005979,0.010035,-0.697739
2025-01-15T10:00:06.440Z,-0.002111,-0.011821,-0.557721
2025-01-15T10:00:06.480Z,0.021139,0.030698,-1.039292
2025-01-15T10:00:06.520Z,0.056073,0.006296,-1.619079
2025-01-15T10:00:06.560Z,0.016006,0.031701,-0.889042
2025-01-15T10:00:06.600Z,0.003567,-0.014075,-0.912438
2025-01-15T10:00:06.640Z,-0.035652,-0.014041,-1.053689
2025-01-15T10:00:06.680Z,-0.006969,0.006364,-1.523763
2025-01-15T10:00:06.720Z,0.011021,0.006292,-1.574916
2025-01-15T10:00:06.760Z,0.011206,0.024929,-0.613931
2025-01-15T10:00:06.800Z,0.022915,-0.02308,-1.443807
2025-01-15T10:00:06.840Z,0.036927,-0.009424,-1.422645
2025-01-15T10:00:06.880Z,-0.006755,0.001959,-0.825403
2025-01-15T10:00:06.920Z,0.002453,-0.002085,-0.681869
2025-01-15T10:00:06.960Z,-0.043281,-0.007108,-1.015297
2025-01-15T10:00:07.000Z,0.003307,-0.015484,-0.69485
2025-01-15T10:00:07.040Z,-0.046619,0.000339,-1.060859
2025-01-15T10:00:07.080Z,0.015056,0.00621,-0.597178
2025-01-15T10:00:07.120Z,-0.016501,-0.011293,-1.017176
2025-01-15T10:00:07.160Z,0.004417,-0.001466,-1.196088
2025-01-15T10:00:07.200Z,0.025367,0.026279,-0.943046
2025-01-15T10:00:07.240Z,-0.009944,-0.005056,-0.620693
2025-01-15T10:00:07.280Z,0.001032,0.035909,-0.96586
2025-01-15T10:00:07.320Z,0.628373,-0.017329,-0.849985
2025-01-15T10:00:07.360Z,-0.028376,0.024132,-0.888322
2025-01-15T10:00:07.400Z,0.009395,-0.048318,-0.960829
2025-01-15T10:00:07.440Z,-0.004035,-0.001694,-1.07394
2025-01-15T10:00:07.480Z,0.019267,-0.01262,-1.108625
2025-01-15T10:00:07.520Z,-0.008992,-0.036162,-0.858178
2025-01-15T10:00:07.560Z,-0.02507,0.009841,-0.886979
2025-01-15T10:00:07.600Z,0.005056,0.000939,-1.905609
2025-01-15T10:00:07.640Z,-0.009212,-0.009523,-1.266018
2025-01-15T10:00:07.680Z,-0.030088,-0.015437,-1.260589
2025-01-15T10:00:07.720Z,-0.003834,-0.014162,-1.362632
2025-01-15T10:00:07.760Z,-0.016222,-0.020458,-1.717957
2025-01-15T10:00:07.800Z,-0.013552,-0.023805,-0.661086
2025-01-15T10:00:07.840Z,0.006027,0.010895,-1.189983
2025-01-15T10:00:07.880Z,-0.00914,-0.029132,-0.669477
2025-01-15T10:00:07.920Z,0.020991,0.017529,-0.613033
2025-01-15T10:00:07.960Z,-0.008212,0.000402,-1.59855
2025-01-15T10:00:08.000Z,-0.011133,0.030486,-0.832007
2025-01-15T10:00:08.040Z,-0.024154,0.019201,-1.218587
2025-01-15T10:00:08.080Z,0.001714,-0.010962,-0.769885
2025-01-15T10:00:08.120Z,-0.012633,-0.013086,-1.155014
2025-01-15T10:00:08.160Z,-0.037347,-0.011304,-1.005671
2025-01-15T10:00:08.200Z,0.006458,-0.013187,-1.036508
2025-01-15T10:00:08.240Z,0.015502,-0.010987,-1.141103
2025-01-15T10:00:08.280Z,-0.007255,-0.027198,-1.246004
2025-01-15T10:00:08.320Z,0.019498,-0.002386,-1.375323
2025-01-15T10:00:08.360Z,0.008875,0.011801,-0.886088
2025-01-15T10:00:08.400Z,0.008334,0.004125,-1.449045
2025-01-15T10:00:08.440Z,-0.023387,-0.021911,-0.563671
2025-01-15T10:00:08.480Z,0.023257,0.032475,-1.151736
2025-01-15T10:00:08.520Z,0.001485,0.000655,-0.910565
2025-01-15T10:00:08.560Z,0.003513,0.028524,-1.258017
2025-01-15T10:00:08.600Z,-0.010893,-0.013215,-1.142049
2025-01-15T10:00:08.640Z,0.046929,0.003624,-0.826483
2025-01-15T10:00:08.680Z,-0.014964,0.017359,-1.440731
2025-01-15T10:00:08.720Z,0.027673,0.01535,-1.316108
2025-01-15T10:00:08.760Z,-0.001945,-0.04022,-1.105284
2025-01-15T10:00:08.800Z,0.024682,-0.002254,-1.367315
2025-01-15T10:00:08.840Z,-0.031375,0.008122,-0.754389
2025-01-15T10:00:08.880Z,-0.007447,0.440413,-0.551005
2025-01-15T10:00:08.920Z,0.028181,-0.003231,-0.718099
2025-01-15T10:00:08.960Z,0.019952,0.017979,-0.854171
2025-01-15T10:00:09.000Z,-0.00155,0.001732,-1.212586
2025-01-15T10:00:09.040Z,0.031045,-0.017178,-0.755224
2025-01-15T10:00:09.080Z,-0.004151,0.026106,-1.190152
2025-01-15T10:00:09.120Z,-0.042102,-0.027954,-1.521954
2025-01-15T10:00:09.160Z,-0.000138,0.000883,-0.568414
2025-01-15T10:00:09.200Z,0.014367,0.013875,-0.875164
2025-01-15T10:00:09.240Z,-0.021883,0.044609,-1.064678
2025-01-15T10:00:09.280Z,-0.019614,0.022544,-0.299924
2025-01-15T10:00:09.320Z,-0.001885,0.011582,-1.266495
2025-01-15T10:00:09.360Z,-0.01105,0.01202,-0.891478
2025-01-15T10:00:09.400Z,-0.021301,-0.000399,-0.951207
2025-01-15T10:00:09.440Z,-0.004679,0.001021,-1.506015
2025-01-15T10:00:09.480Z,-0.003365,-0.505173,-1.214903
2025-01-15T10:00:09.520Z,-0.024264,0.00306,-1.549902
2025-01-15T10:00:09.560Z,0.013552,-0.024618,-1.195529
2025-01-15T10:00:09.600Z,-0.031133,0.004136,-0.635557
2025-01-15T10:00:09.640Z,-0.015064,0.00464,-0.971123
2025-01-15T10:00:09.680Z,0.001683,0.021737,-0.962665
2025-01-15T10:00:09.720Z,0.00873,-0.001839,-1.228452
2025-01-15T10:00:09.760Z,-0.01048,0.016957,-1.496724
2025-01-15T10:00:09.800Z,-0.023147,0.00545,-1.334238
2025-01-15T10:00:09.840Z,0.004123,0.017952,-0.941069
2025-01-15T10:00:09.880Z,0.787995,-0.013655,-1.015038
2025-01-15T10:00:09.920Z,0.029141,0.030209,-1.033492
2025-01-15T10:00:09.960Z,0.022869,0.007579,-1.074026
2025-01-15T10:00:10.000Z,0.002513,0.030285,-0.757223
2025-01-15T10:00:10.040Z,0.021938,-0.005496,-1.071229
2025-01-15T10:00:10.080Z,0.001485,-0.006062,-0.710603
2025-01-15T10:00:10.120Z,-0.024117,-0.000713,-0.6693
2025-01-15T10:00:10.160Z,0.016318,0.001452,-1.252072
2025-01-15T10:00:10.200Z,-0.014731,-0.008322,-1.158061
2025-01-15T10:00:10.240Z,0.014784,0.029172,-1.063052
2025-01-15T10:00:10.280Z,0.005774,-0.017472,-1.217979
2025-01-15T10:00:10.320Z,0.033091,0.023312,-0.567112
2025-01-15T10:00:10.360Z,0.038285,-0.030471,-0.810343
2025-01-15T10:00:10.400Z,-0.03389,0.030982,-1.121524
2025-01-15T10:00:10.440Z,-0.014662,-0.037416,-0.499948
2025-01-15T10:00:10.480Z,0.007378,0.015967,-0.36606
2025-01-15T10:00:10.520Z,0.000512,-0.040761,-1.426762
2025-01-15T10:00:10.560Z,-0.001945,0.004776,-0.926132
2025-01-15T10:00:10.600Z,-0.013567,-0.042054,-0.68223
2025-01-15T10:00:10.640Z,-0.047133,-0.009068,-0.972683
2025-01-15T10:00:10.680Z,-0.012998,-0.026969,-0.743162
2025-01-15T10:00:10.720Z,-0.034372,0.005922,-0.623346
2025-01-15T10:00:10.760Z,0.003546,0.010822,-0.734115
2025-01-15T10:00:10.800Z,-0.003541,0.000293,-0.819626
2025-01-15T10:00:10.840Z,-0.028968,0.033031,-1.167632
2025-01-15T10:00:10.880Z,-0.001114,0.016681,-0.939762
2025-01-15T10:00:10.920Z,-0.010995,-0.001733,-0.730789
2025-01-15T10:00:10.960Z,-0.027464,-0.005116,-0.914911
2025-01-15T10:00:11.000Z,0.026624,0.026787,-0.866873
2025-01-15T10:00:11.040Z,0.006921,0.026453,-0.887566
2025-01-15T10:00:11.080Z,0.00786,0.032424,-1.109484
2025-01-15T10:00:11.120Z,-0.018628,-0.020968,-0.688005
2025-01-15T10:00:11.160Z,-0.002474,-0.003631,-0.976589
2025-01-15T10:00:11.200Z,-0.011026,0.016454,-0.445093
2025-01-15T10:00:11.240Z,-0.007092,0.010089,-0.838486
2025-01-15T10:00:11.280Z,0.018328,0.008586,-0.441805
2025-01-15T10:00:11.320Z,-0.007034,0.036588,-1.354807
2025-01-15T10:00:11.360Z,0.009413,-0.003933,-1.29148
2025-01-15T10:00:11.400Z,-0.022163,-0.010349,-1.189934
2025-01-15T10:00:11.440Z,0.028917,0.001828,-1.334504
2025-01-15T10:00:11.480Z,-0.012633,-0.018502,-0.861859
2025-01-15T10:00:11.520Z,0.012037,0.021156,-1.144094
2025-01-15T10:00:11.560Z,0.450672,-0.374798,-1.186795
2025-01-15T10:00:11.600Z,-0.009082,0.010582,-0.878487
2025-01-15T10:00:11.640Z,-0.001536,0.003463,-0.753898
2025-01-15T10:00:11.680Z,-0.013626,-0.039024,-0.678862
2025-01-15T10:00:11.720Z,0.035596,-0.039981,-1.025706
2025-01-15T10:00:11.760Z,-0.005101,-0.002104,-1.128981
2025-01-15T10:00:11.800Z,-0.007596,0.044605,-0.834153
2025-01-15T10:00:11.840Z,-0.016764,0.020797,-0.58226
2025-01-15T10:00:11.880Z,0.01629,-0.049658,-1.61269
2025-01-15T10:00:11.920Z,0.029268,0.033144,-1.012819
2025-01-15T10:00:11.960Z,0.000988,0.018828,-0.736259
2025-01-15T10:00:12.000Z,-0.036196,-0.018514,-1.367692
2025-01-15T10:00:12.040Z,0.015624,-0.007444,-1.516578
2025-01-15T10:00:12.080Z,-0.023809,0.01296,-0.668746
2025-01-15T10:00:12.120Z,-0.021829,-0.012025,-1.250721
2025-01-15T10:00:12.160Z,-0.004976,-0.014478,-1.167016
2025-01-15T10:00:12.200Z,0.013031,0.015382,-0.605337
2025-01-15T10:00:12.240Z,-0.013634,0.001258,-0.72697
2025-01-15T10:00:12.280Z,-0.01357,-0.010478,-0.228901
2025-01-15T10:00:12.320Z,0.029499,-0.025541,-1.521078
2025-01-15T10:00:12.360Z,0.000598,-0.004545,-1.167319
2025-01-15T10:00:12.400Z,-0.018169,0.00838,-1.440152
2025-01-15T10:00:12.440Z,-0.008777,0.002408,-0.655662
2025-01-15T10:00:12.480Z,0.0245,-0.011577,-0.453599
2025-01-15T10:00:12.520Z,-0.03188,-0.031708,-1.271628
2025-01-15T10:00:12.560Z,-0.026924,-0.011016,-1.041555
2025-01-15T10:00:12.600Z,-0.021967,0.006485,-1.077367
2025-01-15T10:00:12.640Z,0.022769,0.03305,-0.520383
2025-01-15T10:00:12.680Z,-0.006684,-0.011498,-0.898214
2025-01-15T10:00:12.720Z,-0.004005,0.00119,-1.200914
2025-01-15T10:00:12.760Z,3.3e-05,0.046745,-0.534187
2025-01-15T10:00:12.800Z,-0.00062,0.039027,-1.307299
2025-01-15T10:00:12.840Z,0.018122,0.018654,-1.304567
2025-01-15T10:00:12.880Z,0.008752,-0.018034,-1.106838
2025-01-15T10:00:12.920Z,0.020816,-0.009977,-0.914589
2025-01-15T10:00:12.960Z,-0.003451,0.010505,-1.363375
2025-01-15T10:00:13.000Z,0.001897,-0.01165,-1.062296
2025-01-15T10:00:13.040Z,-0.009499,-0.029033,-0.980394
2025-01-15T10:00:13.080Z,0.635563,0.019896,-0.524539
2025-01-15T10:00:13.120Z,0.007574,-0.010067,-1.220247
2025-01-15T10:00:13.160Z,-0.001964,0.003835,-0.862361
2025-01-15T10:00:13.200Z,-0.03759,0.011895,-1.003757
2025-01-15T10:00:13.240Z,0.056185,0.003032,-1.201613
2025-01-15T10:00:13.280Z,-0.020028,-0.007272,-1.078102
2025-01-15T10:00:13.320Z,-0.023389,-0.010785,-1.441229
2025-01-15T10:00:13.360Z,0.031249,-0.027918,-0.927486
2025-01-15T10:00:13.400Z,-0.023821,0.021545,-0.94064
2025-01-15T10:00:13.440Z,-0.0065,0.014932,-1.067979
2025-01-15T10:00:13.480Z,0.008368,-0.00536,-1.12483
2025-01-15T10:00:13.520Z,0.011944,-0.001319,-0.966717
2025-01-15T10:00:13.560Z,0.358668,0.773769,-0.011285
2025-01-15T10:00:13.600Z,0.007961,0.039035,-0.640332
2025-01-15T10:00:13.640Z,0.007414,0.007518,-1.392003
2025-01-15T10:00:13.680Z,0.007511,0.007124,-0.853182
2025-01-15T10:00:13.720Z,0.040885,0.056793,-0.638695
2025-01-15T10:00:13.760Z,-0.02873,-0.004003,-0.920069
2025-01-15T10:00:13.800Z,-0.052639,-0.021112,-1.048511
2025-01-15T10:00:13.840Z,-0.004815,0.028475,-1.634658
2025-01-15T10:00:13.880Z,-0.046725,0.021759,-0.957418
2025-01-15T10:00:13.920Z,0.036365,-0.031659,-1.059539
2025-01-15T10:00:13.960Z,0.021754,0.052254,-1.17709
2025-01-15T10:00:14.000Z,-0.031234,-0.006815,-0.658876
2025-01-15T10:00:14.040Z,0.01395,-0.026785,-0.873035
2025-01-15T10:00:14.080Z,-0.003474,-0.010997,-1.064618
2025-01-15T10:00:14.120Z,0.003041,-0.020562,-0.463082
2025-01-15T10:00:14.160Z,0.032793,-0.006383,-1.121775
2025-01-15T10:00:14.200Z,0.030723,-0.008975,-1.164313
2025-01-15T10:00:14.240Z,0.021806,-0.006035,-1.104684
2025-01-15T10:00:14.280Z,-0.009246,0.004469,-1.361657
2025-01-15T10:00:14.320Z,-0.018033,0.006254,-0.891431
2025-01-15T10:00:14.360Z,0.001644,0.003561,-0.768719
2025-01-15T10:00:14.400Z,-0.021948,-0.032229,-1.15782
2025-01-15T10:00:14.440Z,-0.017254,-0.008878,-1.330176
2025-01-15T10:00:14.480Z,0.018568,-0.008583,-1.025808
2025-01-15T10:00:14.520Z,-0.00174,-0.01667,-0.858244
2025-01-15T10:00:14.560Z,-0.008539,0.001889,-1.250477
2025-01-15T10:00:14.600Z,0.010235,-0.006025,-1.119503
2025-01-15T10:00:14.640Z,0.007376,-0.01557,-1.065176
2025-01-15T10:00:14.680Z,0.038966,-0.026541,-1.44632
2025-01-15T10:00:14.720Z,0.02148,-0.028909,-0.733671
2025-01-15T10:00:14.760Z,0.003748,-0.049395,-1.338426
2025-01-15T10:00:14.800Z,0.016448,0.026685,-1.077225
2025-01-15T10:00:14.840Z,0.004718,-0.00767,-1.578295
2025-01-15T10:00:14.880Z,0.030463,-0.019016,-0.69069
2025-01-15T10:00:14.920Z,0.000197,0.017121,-1.550548
2025-01-15T10:00:14.960Z,0.017325,-0.010808,-1.191973
2025-01-15T10:00:15.000Z,-0.020224,-0.005392,-1.119822
2025-01-15T10:00:15.040Z,0.022672,-0.016616,-0.902259
2025-01-15T10:00:15.080Z,0.011256,0.003043,-0.899116
2025-01-15T10:00:15.120Z,-0.019976,-0.00207,-1.127164
2025-01-15T10:00:15.160Z,-0.02459,-0.00369,-1.208908
2025-01-15T10:00:15.200Z,0.002646,-0.000698,-0.643346
2025-01-15T10:00:15.240Z,0.01597,-0.008349,-0.898455
2025-01-15T10:00:15.280Z,0.000739,0.0256,-1.038397
2025-01-15T10:00:15.320Z,-0.00265,-0.01368,-1.322576
2025-01-15T10:00:15.360Z,-0.029284,0.028971,-1.04836
2025-01-15T10:00:15.400Z,-0.027675,-0.001994,-1.350078
2025-01-15T10:00:15.440Z,0.034384,0.026986,-1.026339
2025-01-15T10:00:15.480Z,0.024235,0.007041,-0.87319
2025-01-15T10:00:15.520Z,0.001116,-0.00288,-1.328182
2025-01-15T10:00:15.560Z,-0.042227,0.056156,-1.046243
2025-01-15T10:00:15.600Z,-0.002123,0.003523,-1.022139
2025-01-15T10:00:15.640Z,-0.04148,-0.017061,-0.721415
2025-01-15T10:00:15.680Z,-0.009759,-0.001685,-0.945744
2025-01-15T10:00:15.720Z,-0.016782,0.009636,-0.869103
2025-01-15T10:00:15.760Z,0.020952,-0.003574,-1.248254
2025-01-15T10:00:15.800Z,-0.010674,0.014353,-1.012419
2025-01-15T10:00:15.840Z,0.005129,-0.0144,-1.147472
2025-01-15T10:00:15.880Z,0.005441,-0.030973,-0.97802
2025-01-15T10:00:15.920Z,0.028361,-0.014191,-1.211698
2025-01-15T10:00:15.960Z,-0.014819,0.003087,-0.911004
2025-01-15T10:00:16.000Z,-0.004157,-0.007696,-0.942826
2025-01-15T10:00:16.040Z,-0.032998,-0.004772,-0.906296
2025-01-15T10:00:16.080Z,0.018072,0.032174,-1.21424
2025-01-15T10:00:16.120Z,-0.028605,-0.018278,-0.913585
2025-01-15T10:00:16.160Z,0.008411,-0.01812,-0.737824
2025-01-15T10:00:16.200Z,0.011168,-0.011541,-1.096293
2025-01-15T10:00:16.240Z,0.00967,0.007823,-0.650748
2025-01-15T10:00:16.280Z,0.020678,0.033657,-1.559976
2025-01-15T10:00:16.320Z,0.009124,-0.011047,-1.113981
2025-01-15T10:00:16.360Z,-0.022833,0.001052,-1.760995
2025-01-15T10:00:16.400Z,0.022868,-0.012216,-0.771991
2025-01-15T10:00:16.440Z,-0.003039,0.024679,-0.635987
2025-01-15T10:00:16.480Z,-0.015137,-0.017089,-1.740104
2025-01-15T10:00:16.520Z,-0.005386,-0.008046,-0.781517
2025-01-15T10:00:16.560Z,-0.026505,-0.00667,-1.288522
2025-01-15T10:00:16.600Z,-0.00898,-0.024796,-0.813351
2025-01-15T10:00:16.640Z,0.010142,-0.016664,-0.662638
2025-01-15T10:00:16.680Z,-0.004599,0.020686,-1.123572
2025-01-15T10:00:16.720Z,0.0037,-0.003578,-1.097187
2025-01-15T10:00:16.760Z,-0.014864,-0.005461,-1.162262
2025-01-15T10:00:16.800Z,0.014104,0.038385,-0.829365
2025-01-15T10:00:16.840Z,-0.006794,0.003931,-1.73767
2025-01-15T10:00:16.880Z,0.021288,-0.032486,-0.063677
2025-01-15T10:00:16.920Z,0.009371,-0.021594,-0.878467
2025-01-15T10:00:16.960Z,-0.017204,-0.028476,-1.572387
2025-01-15T10:00:17.000Z,0.002423,-0.00016,-1.293367
2025-01-15T10:00:17.040Z,0.615842,0.022897,-0.650162
2025-01-15T10:00:17.080Z,-0.027287,-0.028723,-0.823486
2025-01-15T10:00:17.120Z,-0.002487,-0.017039,-0.743697
2025-01-15T10:00:17.160Z,0.00183,-0.006885,-1.115412
2025-01-15T10:00:17.200Z,-6.9e-05,0.002848,-1.029015
2025-01-15T10:00:17.240Z,0.020238,-0.018398,-0.88618
2025-01-15T10:00:17.280Z,0.029108,0.011179,-1.04649
2025-01-15T10:00:17.320Z,-0.005897,0.023397,-1.415546
2025-01-15T10:00:17.360Z,-0.00363,-0.020873,-0.898485
2025-01-15T10:00:17.400Z,0.035385,0.011158,-1.263819
2025-01-15T10:00:17.440Z,-0.041628,-0.034544,-0.699871
2025-01-15T10:00:17.480Z,-0.005067,-0.023124,-0.902677
2025-01-15T10:00:17.520Z,0.03111,0.000337,-0.967701
2025-01-15T10:00:17.560Z,-0.014921,-0.01592,-1.820396
2025-01-15T10:00:17.600Z,0.006927,-0.000153,-1.166887
2025-01-15T10:00:17.640Z,0.030031,0.054255,-0.929238
2025-01-15T10:00:17.680Z,0.016848,0.010376,-1.053442
2025-01-15T10:00:17.720Z,0.000323,0.046997,-0.836189
2025-01-15T10:00:17.760Z,-0.00087,0.023016,-0.861397
2025-01-15T10:00:17.800Z,0.024175,-0.018812,-1.603505
2025-01-15T10:00:17.840Z,-0.702382,0.006989,-0.797878
2025-01-15T10:00:17.880Z,-0.017466,0.012219,-1.516831
2025-01-15T10:00:17.920Z,-0.016002,-0.014452,-1.12562
2025-01-15T10:00:17.960Z,0.000807,-0.013985,-0.872813
2025-01-15T10:00:18.000Z,0.002648,0.007559,-0.993258
2025-01-15T10:00:18.040Z,-0.002163,-0.008545,-1.188141
2025-01-15T10:00:18.080Z,-0.024912,-0.032983,-1.393342
2025-01-15T10:00:18.120Z,0.013241,-0.01914,-1.063616
2025-01-15T10:00:18.160Z,-0.009319,0.003598,-1.342672
2025-01-15T10:00:18.200Z,0.006371,-0.021319,-0.796641
2025-01-15T10:00:18.240Z,0.580218,0.037885,-0.764351
2025-01-15T10:00:18.280Z,-0.023032,0.002998,-1.185026
2025-01-15T10:00:18.320Z,-0.012195,0.038969,-0.929693
2025-01-15T10:00:18.360Z,-0.012021,0.052272,-0.564072
2025-01-15T10:00:18.400Z,-0.005693,-0.001954,-1.090451
2025-01-15T10:00:18.440Z,0.016026,0.037595,-0.716805
2025-01-15T10:00:18.480Z,0.001442,-0.00702,-1.056035
2025-01-15T10:00:18.520Z,-0.001441,-0.012565,-1.463418
2025-01-15T10:00:18.560Z,0.051416,-0.022507,-1.322581
2025-01-15T10:00:18.600Z,0.014994,-0.014561,-0.678268
2025-01-15T10:00:18.640Z,-0.028373,-0.010729,-0.989339
2025-01-15T10:00:18.680Z,0.010746,0.001205,-0.7352
2025-01-15T10:00:18.720Z,-0.000156,0.025308,-0.942428
2025-01-15T10:00:18.760Z,0.013369,0.016867,-1.103623
2025-01-15T10:00:18.800Z,0.013082,-0.010637,-0.867669
2025-01-15T10:00:18.840Z,0.001354,-0.005932,-0.788115
2025-01-15T10:00:18.880Z,-0.039348,0.004822,-0.801857
2025-01-15T10:00:18.920Z,0.035542,0.021943,-0.539657
2025-01-15T10:00:18.960Z,-1.1e-05,-0.018557,-1.113722
2025-01-15T10:00:19.000Z,0.029997,-0.03248,-0.862389
2025-01-15T10:00:19.040Z,0.029349,0.008999,-0.8974
2025-01-15T10:00:19.080Z,0.020724,-0.014928,-1.054011
2025-01-15T10:00:19.120Z,0.007799,-0.453076,-1.239491
2025-01-15T10:00:19.160Z,0.003191,-0.020515,-0.704254
2025-01-15T10:00:19.200Z,0.000314,0.015508,-1.034257
2025-01-15T10:00:19.240Z,0.0069,-0.016554,-0.898555
2025-01-15T10:00:19.280Z,-0.016935,-0.007275,-0.897237
2025-01-15T10:00:19.320Z,0.029596,0.008037,-0.693736
2025-01-15T10:00:19.360Z,-0.043417,0.013268,-0.951457
2025-01-15T10:00:19.400Z,0.002453,0.019882,-0.907879
2025-01-15T10:00:19.440Z,-0.003503,0.010797,-1.027152
2025-01-15T10:00:19.480Z,0.051184,0.020594,-0.656453
2025-01-15T10:00:19.520Z,0.003839,0.01354,-0.726507
2025-01-15T10:00:19.560Z,-0.017552,-0.020383,-1.716655
2025-01-15T10:00:19.600Z,0.022187,-0.020998,-1.232496
2025-01-15T10:00:19.640Z,-0.015764,-0.044295,-1.15867
2025-01-15T10:00:19.680Z,-0.031254,-0.011042,-0.998255
2025-01-15T10:00:19.720Z,-0.012187,0.022136,-1.535785
2025-01-15T10:00:19.760Z,-0.002882,-0.02243,-0.480858
2025-01-15T10:00:19.800Z,-0.006278,0.002404,-0.913391
2025-01-15T10:00:19.840Z,-0.005821,-0.012487,-1.009608
2025-01-15T10:00:19.880Z,-0.028513,0.031265,-1.124935
2025-01-15T10:00:19.920Z,-0.002917,-0.022438,-0.655511
2025-01-15T10:00:19.960Z,-0.003189,-0.021676,-0.370739
2025-01-15T10:00:20.000Z,-0.007194,0.019959,-0.376407
2025-01-15T10:00:20.040Z,-0.026865,-0.016081,-1.193552
2025-01-15T10:00:20.080Z,-0.047207,-0.002583,-1.289307
2025-01-15T10:00:20.120Z,-0.031027,-0.027636,-1.062791
2025-01-15T10:00:20.160Z,0.039639,-0.000745,-0.688567
2025-01-15T10:00:20.200Z,-0.012789,-0.026938,-0.926535
2025-01-15T10:00:20.240Z,0.011601,0.015959,-1.466588
2025-01-15T10:00:20.280Z,-0.005935,-0.012897,-0.989092
2025-01-15T10:00:20.320Z,-0.004554,0.01232,-0.246815
2025-01-15T10:00:20.360Z,-0.001373,-0.012048,-1.346494
2025-01-15T10:00:20.400Z,-0.007934,0.015751,-1.194696
2025-01-15T10:00:20.440Z,0.01567,-0.007121,-1.643842
2025-01-15T10:00:20.480Z,-0.024461,0.010845,-1.671045
2025-01-15T10:00:20.520Z,-0.007262,0.004932,-1.314529
2025-01-15T10:00:20.560Z,0.478527,-0.022096,-0.82876
2025-01-15T10:00:20.600Z,-0.011919,-0.016723,-0.245364
2025-01-15T10:00:20.640Z,0.002189,-0.014532,-0.534512
2025-01-15T10:00:20.680Z,0.004043,-0.006058,-1.145115
2025-01-15T10:00:20.720Z,-0.01,0.000575,-1.13945
2025-01-15T10:00:20.760Z,0.012652,-0.013039,-1.037137
2025-01-15T10:00:20.800Z,-0.002318,-0.024794,-0.596656
2025-01-15T10:00:20.840Z,0.02601,-0.013334,-1.159276
2025-01-15T10:00:20.880Z,0.008748,0.004049,-0.853674
2025-01-15T10:00:20.920Z,-0.024561,0.01401,-0.397413
2025-01-15T10:00:20.960Z,0.034475,-0.003181,-0.864252
2025-01-15T10:00:21.000Z,-0.003089,-0.002311,-1.132807
2025-01-15T10:00:21.040Z,0.002601,-0.007323,-1.00783
2025-01-15T10:00:21.080Z,-0.007983,0.012985,-1.041054
2025-01-15T10:00:21.120Z,-0.003915,-0.453507,-0.713591
2025-01-15T10:00:21.160Z,0.020352,-0.035355,-0.829141
2025-01-15T10:00:21.200Z,-0.002894,-0.01109,-1.046851
2025-01-15T10:00:21.240Z,-0.008827,-0.020017,-1.231107
2025-01-15T10:00:21.280Z,0.014608,-0.000366,-0.836722
2025-01-15T10:00:21.320Z,-0.01264,0.007109,-0.771332
2025-01-15T10:00:21.360Z,0.002801,-0.006297,-0.472652
2025-01-15T10:00:21.400Z,-0.002722,-0.017436,-1.069157
2025-01-15T10:00:21.440Z,0.009752,0.020385,-1.437965
2025-01-15T10:00:21.480Z,0.01634,0.012968,-1.131798
2025-01-15T10:00:21.520Z,-0.006496,0.018084,-1.244496
2025-01-15T10:00:21.560Z,-0.000782,-0.024011,-0.881444
2025-01-15T10:00:21.600Z,-0.00919,-0.031198,-0.651812
2025-01-15T10:00:21.640Z,-0.036108,-0.002946,-0.701334
2025-01-15T10:00:21.680Z,0.016249,-0.002316,-0.928742
2025-01-15T10:00:21.720Z,-0.037823,-0.044683,-0.503314
2025-01-15T10:00:21.760Z,0.010918,0.033898,-0.553295
2025-01-15T10:00:21.800Z,0.019343,-0.005386,-1.035706
2025-01-15T10:00:21.840Z,0.00677,-0.025954,-1.008444
2025-01-15T10:00:21.880Z,-0.015724,-0.03083,-1.092609
2025-01-15T10:00:21.920Z,0.010312,-0.008015,-1.23016
2025-01-15T10:00:21.960Z,-0.002871,-0.009041,-0.659784
2025-01-15T10:00:22.000Z,-0.019726,0.010773,-1.134933
2025-01-15T10:00:22.040Z,0.017088,-0.001601,-1.016689
2025-01-15T10:00:22.080Z,0.012171,0.012662,-0.70223
2025-01-15T10:00:22.120Z,0.058112,0.00951,-0.819657
2025-01-15T10:00:22.160Z,-0.041877,-0.01794,-1.166267
2025-01-15T10:00:22.200Z,-0.0091,0.007818,-0.83788
2025-01-15T10:00:22.240Z,0.103145,0.540665,-0.824461
2025-01-15T10:00:22.280Z,-0.001758,-0.035325,-1.395642
2025-01-15T10:00:22.320Z,-0.014039,0.000153,-1.249491
2025-01-15T10:00:22.360Z,0.608551,-0.000714,-2.58001
2025-01-15T10:00:22.400Z,0.022154,0.006065,-0.791745
2025-01-15T10:00:22.440Z,0.026424,-0.00621,-0.674577
2025-01-15T10:00:22.480Z,0.003236,-0.019247,-1.387514
2025-01-15T10:00:22.520Z,0.003185,0.028648,-1.179119
2025-01-15T10:00:22.560Z,0.029809,0.045352,-1.018222
2025-01-15T10:00:22.600Z,0.003278,0.022147,-1.578653
2025-01-15T10:00:22.640Z,-0.015958,-0.005777,-1.514335
2025-01-15T10:00:22.680Z,0.004555,-0.016143,-1.481324
2025-01-15T10:00:22.720Z,-0.023288,0.004558,-0.533576
2025-01-15T10:00:22.760Z,-0.015462,0.008762,-0.54682
2025-01-15T10:00:22.800Z,0.037266,-0.00259,-0.943307
2025-01-15T10:00:22.840Z,-0.019209,-0.022416,-0.967583
2025-01-15T10:00:22.880Z,-0.007451,0.002819,-1.731657
2025-01-15T10:00:22.920Z,-0.013399,-0.002615,-1.048759
2025-01-15T10:00:22.960Z,-0.002904,0.004163,-1.197039
2025-01-15T10:00:23.000Z,-0.035858,-0.011137,-0.45066
2025-01-15T10:00:23.040Z,-0.013998,-0.013097,-0.971619
2025-01-15T10:00:23.080Z,0.032933,-0.008473,-1.130944
2025-01-15T10:00:23.120Z,-0.013706,-0.001341,-0.869109
2025-01-15T10:00:23.160Z,0.009853,0.024365,-0.702613
2025-01-15T10:00:23.200Z,0.015952,-0.012933,-1.081352
2025-01-15T10:00:23.240Z,-0.020543,0.010072,-1.30368
2025-01-15T10:00:23.280Z,0.027714,-0.010546,-1.258613
2025-01-15T10:00:23.320Z,-0.808129,0.019358,-1.090885
2025-01-15T10:00:23.360Z,0.009171,0.030798,-1.095618
2025-01-15T10:00:23.400Z,0.01866,0.012602,-0.719404
2025-01-15T10:00:23.440Z,0.007439,0.027547,-1.048091
2025-01-15T10:00:23.480Z,0.020323,-0.013776,-0.882285
2025-01-15T10:00:23.520Z,0.038718,0.034706,-0.637511
2025-01-15T10:00:23.560Z,0.034363,0.019946,-0.705041
2025-01-15T10:00:23.600Z,-0.020855,0.578419,-1.144996
2025-01-15T10:00:23.640Z,0.016189,-0.02615,-1.338757
2025-01-15T10:00:23.680Z,-0.025978,-0.024742,-0.396337
2025-01-15T10:00:23.720Z,0.012571,0.015316,-1.406761
2025-01-15T10:00:23.760Z,-0.042604,-0.000883,-1.555437
2025-01-15T10:00:23.800Z,-0.012205,0.006324,-0.911697
2025-01-15T10:00:23.840Z,0.002459,0.008547,-1.002619
2025-01-15T10:00:23.880Z,-0.030437,0.02222,-1.03721
2025-01-15T10:00:23.920Z,0.0038,-0.004541,-0.986337
2025-01-15T10:00:23.960Z,-0.014594,0.02142,-0.596237
2025-01-15T10:00:24.000Z,0.002904,-0.025506,-1.577894
2025-01-15T10:00:24.040Z,-0.03401,0.007349,-1.000513
2025-01-15T10:00:24.080Z,0.005427,0.002108,-0.958617
2025-01-15T10:00:24.120Z,-0.022233,0.071009,-0.867392
2025-01-15T10:00:24.160Z,0.012837,0.015803,-1.110348
2025-01-15T10:00:24.200Z,-0.003971,0.019656,-0.869013
2025-01-15T10:00:24.240Z,0.005261,-0.016922,-1.012128
2025-01-15T10:00:24.280Z,-0.006344,-0.032493,-0.877214
2025-01-15T10:00:24.320Z,0.015019,-0.025137,-1.587837
2025-01-15T10:00:24.360Z,-0.011621,0.000164,-0.743675
2025-01-15T10:00:24.400Z,0.002434,0.017984,-0.90909
2025-01-15T10:00:24.440Z,0.034725,0.006831,-0.752757
2025-01-15T10:00:24.480Z,0.006156,0.037638,-0.878535
2025-01-15T10:00:24.520Z,-0.0053,0.020331,-1.510274
2025-01-15T10:00:24.560Z,-0.038273,0.013892,-1.225731
2025-01-15T10:00:24.600Z,-0.013721,-0.004329,-0.636766
2025-01-15T10:00:24.640Z,0.010955,-0.035056,-0.898082
2025-01-15T10:00:24.680Z,0.050494,0.006182,-1.35804
2025-01-15T10:00:24.720Z,-0.005061,-0.007648,-1.095296
2025-01-15T10:00:24.760Z,-0.016991,-0.010266,-0.919514
2025-01-15T10:00:24.800Z,-0.025957,0.039292,-0.794719
2025-01-15T10:00:24.840Z,-0.010409,0.008866,-1.270017
2025-01-15T10:00:24.880Z,-0.020865,-0.016422,-1.286807
2025-01-15T10:00:24.920Z,0.035211,-0.018434,-0.944844
2025-01-15T10:00:24.960Z,0.01783,0.025607,-1.303735
2025-01-15T10:00:25.000Z,0.001146,-0.004926,-0.827428
2025-01-15T10:00:25.040Z,-0.044819,-0.021085,-1.293535
2025-01-15T10:00:25.080Z,-0.008166,-0.042696,-1.291879
2025-01-15T10:00:25.120Z,0.023816,-0.008133,-1.063149
2025-01-15T10:00:25.160Z,0.023104,-0.006176,-0.840922
2025-01-15T10:00:25.200Z,0.017758,-0.015069,-1.254448
2025-01-15T10:00:25.240Z,-0.003466,0.050695,-0.897176
2025-01-15T10:00:25.280Z,-0.024957,0.010634,-0.862802
2025-01-15T10:00:25.320Z,0.04127,0.012419,-0.876038
2025-01-15T10:00:25.360Z,0.05084,0.000418,-1.72114
2025-01-15T10:00:25.400Z,-0.000554,0.006333,-0.890585
2025-01-15T10:00:25.440Z,0.008463,-0.032378,-1.190802
2025-01-15T10:00:25.480Z,-0.01397,-0.009133,-1.016597
2025-01-15T10:00:25.520Z,0.025043,-0.003942,-1.194345
2025-01-15T10:00:25.560Z,0.006929,-0.027329,-1.182874
2025-01-15T10:00:25.600Z,-0.016222,-0.008703,-0.932282
2025-01-15T10:00:25.640Z,0.006458,0.008004,-0.579454
2025-01-15T10:00:25.680Z,0.018899,-0.027834,-1.237514
2025-01-15T10:00:25.720Z,-0.037599,0.012731,-1.169113
2025-01-15T10:00:25.760Z,0.327729,0.389174,-0.96428
2025-01-15T10:00:25.800Z,-0.037784,0.001524,-0.986646
2025-01-15T10:00:25.840Z,-0.017759,0.013028,-1.068112
2025-01-15T10:00:25.880Z,-0.010369,0.001202,-1.123393
2025-01-15T10:00:25.920Z,-0.520984,-0.028485,-0.778382
2025-01-15T10:00:25.960Z,0.014081,-0.020685,-0.340496
2025-01-15T10:00:26.000Z,-0.014453,-0.589521,-0.999732
2025-01-15T10:00:26.040Z,-0.008799,0.000756,-1.628493
2025-01-15T10:00:26.080Z,0.014525,0.000588,-1.002516
2025-01-15T10:00:26.120Z,-0.010038,0.026399,-1.30938
2025-01-15T10:00:26.160Z,0.016656,0.031377,-1.327639
2025-01-15T10:00:26.200Z,-0.012422,0.035696,-0.929916
2025-01-15T10:00:26.240Z,0.000969,0.005654,-0.784019
2025-01-15T10:00:26.280Z,-0.016748,-4e-05,-1.146165
2025-01-15T10:00:26.320Z,0.003437,0.026478,-0.59527
2025-01-15T10:00:26.360Z,0.007898,-0.007339,-0.500252
2025-01-15T10:00:26.400Z,-0.001073,0.007456,-0.979895
2025-01-15T10:00:26.440Z,-0.788923,-0.022523,-1.658474
2025-01-15T10:00:26.480Z,-0.050833,0.000965,-0.425408
2025-01-15T10:00:26.520Z,-0.041635,0.025379,-0.619382
2025-01-15T10:00:26.560Z,0.040932,0.044484,-1.184126
2025-01-15T10:00:26.600Z,-0.012998,0.016614,-0.798077
2025-01-15T10:00:26.640Z,-0.001826,0.029717,-0.911155
2025-01-15T10:00:26.680Z,0.002738,0.001021,-0.429985
2025-01-15T10:00:26.720Z,0.0028,0.009689,-1.149776
2025-01-15T10:00:26.760Z,0.028941,0.00709,-1.20995
2025-01-15T10:00:26.800Z,0.010267,0.036138,-0.917795
2025-01-15T10:00:26.840Z,0.000228,-0.009329,-1.105395
2025-01-15T10:00:26.880Z,-0.017386,0.008722,-0.686554
2025-01-15T10:00:26.920Z,0.016197,-0.010484,-1.142502
2025-01-15T10:00:26.960Z,-0.021089,-0.011228,-0.795466
2025-01-15T10:00:27.000Z,-0.020123,-0.019791,-1.001118
2025-01-15T10:00:27.040Z,-0.005802,-0.008708,-1.201645
2025-01-15T10:00:27.080Z,0.014001,0.010055,-1.499509
2025-01-15T10:00:27.120Z,-0.028509,-0.001381,-0.886407
2025-01-15T10:00:27.160Z,0.014488,0.005812,-1.185468
2025-01-15T10:00:27.200Z,-0.014192,0.019022,-0.54123
2025-01-15T10:00:27.240Z,0.003343,0.000723,-0.725438
2025-01-15T10:00:27.280Z,-0.003139,-0.66264,-0.884252
2025-01-15T10:00:27.320Z,0.000873,0.022924,-0.870658
2025-01-15T10:00:27.360Z,0.009037,-0.025242,-0.801583
2025-01-15T10:00:27.400Z,-0.019759,0.01357,-1.303823
2025-01-15T10:00:27.440Z,0.009899,0.032765,-0.785967
2025-01-15T10:00:27.480Z,0.636089,0.354462,-1.54433
2025-01-15T10:00:27.520Z,0.023099,0.01331,-1.082273
2025-01-15T10:00:27.560Z,0.015053,0.013825,-1.089483
2025-01-15T10:00:27.600Z,0.003559,0.008013,-0.847389
2025-01-15T10:00:27.640Z,-0.005348,-0.008067,-0.994503
2025-01-15T10:00:27.680Z,0.007147,0.030403,-1.028953
2025-01-15T10:00:27.720Z,-0.012396,-0.018195,-1.149254
2025-01-15T10:00:27.760Z,0.001303,0.014549,-1.256836
2025-01-15T10:00:27.800Z,-0.002228,0.01565,-0.879177
2025-01-15T10:00:27.840Z,0.008118,-0.037609,-1.073262
2025-01-15T10:00:27.880Z,0.025057,0.017196,-0.59404
2025-01-15T10:00:27.920Z,0.015174,0.003306,-1.229978
2025-01-15T10:00:27.960Z,-0.011963,-0.014371,-1.073925
2025-01-15T10:00:28.000Z,0.008203,0.034917,-1.231087
2025-01-15T10:00:28.040Z,0.042239,0.027371,-0.882679
2025-01-15T10:00:28.080Z,-0.023088,-0.003234,-0.882651
2025-01-15T10:00:28.120Z,-0.010955,0.001945,-1.252043
2025-01-15T10:00:28.160Z,-0.01575,0.001352,-1.419328
2025-01-15T10:00:28.200Z,-0.036057,-0.005056,-0.758085
2025-01-15T10:00:28.240Z,-0.005869,0.023285,-1.01901
2025-01-15T10:00:28.280Z,0.006013,-0.013554,-0.891473
2025-01-15T10:00:28.320Z,0.013397,0.000179,-1.049213
2025-01-15T10:00:28.360Z,-0.007202,-0.005193,-1.142247
2025-01-15T10:00:28.400Z,0.017602,-0.029958,-0.765596
2025-01-15T10:00:28.440Z,-0.013774,0.012334,-1.13425
2025-01-15T10:00:28.480Z,0.029877,0.001359,-1.202946
2025-01-15T10:00:28.520Z,-0.023557,0.010459,-0.858859
2025-01-15T10:00:28.560Z,-0.018902,0.017981,-0.502801
2025-01-15T10:00:28.600Z,-0.007171,-0.007526,-0.585935
2025-01-15T10:00:28.640Z,0.027845,-0.021492,-0.570792
2025-01-15T10:00:28.680Z,0.007885,-0.004296,-1.376364
2025-01-15T10:00:28.720Z,0.001895,0.006356,-1.346413
2025-01-15T10:00:28.760Z,-0.005243,-0.024019,-1.231563
2025-01-15T10:00:28.800Z,-0.012436,-0.003663,-1.035118
2025-01-15T10:00:28.840Z,0.020015,-0.018849,-0.814512
2025-01-15T10:00:28.880Z,0.008271,-0.024478,-1.400697
2025-01-15T10:00:28.920Z,-0.005956,-0.012738,-0.57057
2025-01-15T10:00:28.960Z,-0.019869,0.014383,-1.411045
2025-01-15T10:00:29.000Z,-0.003955,-0.00789,-0.767195
2025-01-15T10:00:29.040Z,-0.008023,0.003792,-1.095392
2025-01-15T10:00:29.080Z,-0.010663,-0.023187,-1.189672
2025-01-15T10:00:29.120Z,-0.756761,0.390758,-2.396837
2025-01-15T10:00:29.160Z,0.01633,-0.000635,-0.805816
2025-01-15T10:00:29.200Z,-0.010427,0.022249,-1.513862
2025-01-15T10:00:29.240Z,-0.018312,-0.036853,-1.539994
2025-01-15T10:00:29.280Z,-0.002996,0.036012,-1.197273
2025-01-15T10:00:29.320Z,0.002833,0.001105,-0.477703
2025-01-15T10:00:29.360Z,0.008827,-0.02555,-0.895734
2025-01-15T10:00:29.400Z,-0.009743,-0.01726,-1.433687
2025-01-15T10:00:29.440Z,-0.039491,0.010956,-0.982794
2025-01-15T10:00:29.480Z,-0.036653,4.9e-05,-1.020153
2025-01-15T10:00:29.520Z,0.0066,0.015397,-0.798303
2025-01-15T10:00:29.560Z,0.010939,-0.010772,-1.093542
2025-01-15T10:00:29.600Z,0.021097,0.039228,-1.244956
2025-01-15T10:00:29.640Z,0.013222,0.022661,-0.618106
2025-01-15T10:00:29.680Z,-0.027733,0.016767,-1.345041
2025-01-15T10:00:29.720Z,0.012723,0.00589,-1.483329
2025-01-15T10:00:29.760Z,0.05034,0.01208,-0.940848
2025-01-15T10:00:29.800Z,-0.010929,0.017034,-1.332773
2025-01-15T10:00:29.840Z,-0.03581,-0.018788,-1.479474
2025-01-15T10:00:29.880Z,-0.00606,0.019997,-1.446707
2025-01-15T10:00:29.920Z,-0.002489,-0.018118,-0.68392
2025-01-15T10:00:29.960Z,-0.004533,0.006724,-0.945695
2025-01-15T10:00:30.000Z,0.010941,-0.001395,-1.379913
2025-01-15T10:00:30.040Z,0.015703,0.003259,-1.076662
2025-01-15T10:00:30.080Z,0.013452,0.022168,-1.25705
2025-01-15T10:00:30.120Z,-0.476047,-0.014835,-1.105885
2025-01-15T10:00:30.160Z,-0.034001,0.040356,-0.948849
2025-01-15T10:00:30.200Z,-0.029542,-0.035893,-0.763157
2025-01-15T10:00:30.240Z,-0.004971,0.029138,-1.182557
2025-01-15T10:00:30.280Z,0.00449,0.011613,-0.437559
2025-01-15T10:00:30.320Z,0.016647,-0.004641,-0.318494
2025-01-15T10:00:30.360Z,0.008232,0.015618,-0.807641
2025-01-15T10:00:30.400Z,-0.00236,0.002366,-0.412396
2025-01-15T10:00:30.440Z,-0.008555,-0.004309,-0.707573
2025-01-15T10:00:30.480Z,0.013872,-0.003665,-1.322995
2025-01-15T10:00:30.520Z,-0.013504,-0.023737,-0.990517
2025-01-15T10:00:30.560Z,0.011322,0.00481,-1.190513
2025-01-15T10:00:30.600Z,-0.007356,0.0011,-1.217111
2025-01-15T10:00:30.640Z,-0.002,0.024739,-1.01011
2025-01-15T10:00:30.680Z,-0.022129,-0.016121,-0.48188
2025-01-15T10:00:30.720Z,-0.002858,-0.00648,-1.560632
2025-01-15T10:00:30.760Z,-0.023948,0.009516,-1.638222
2025-01-15T10:00:30.800Z,0.013321,-0.013398,-1.18426
2025-01-15T10:00:30.840Z,-0.023726,-0.007093,-0.599323
2025-01-15T10:00:30.880Z,0.015681,0.023684,-1.450273
2025-01-15T10:00:30.920Z,-0.008816,-0.021901,-0.645891
2025-01-15T10:00:30.960Z,-0.021758,-0.022212,-1.163932
2025-01-15T10:00:31.000Z,0.03051,0.024736,-1.193455
2025-01-15T10:00:31.040Z,-0.014411,0.029697,-0.665302
2025-01-15T10:00:31.080Z,-0.001667,-0.01992,-1.010425
2025-01-15T10:00:31.120Z,0.149416,0.78157,-1.909053
2025-01-15T10:00:31.160Z,0.020956,-0.009174,-0.793407
2025-01-15T10:00:31.200Z,0.036018,-0.030211,-0.744264
2025-01-15T10:00:31.240Z,0.005848,0.012474,-0.932048
2025-01-15T10:00:31.280Z,0.000115,-0.041855,-0.986725
2025-01-15T10:00:31.320Z,0.017361,-0.024242,-1.130081
2025-01-15T10:00:31.360Z,-0.753618,0.012468,-0.590873
2025-01-15T10:00:31.400Z,-0.064774,-0.034779,-1.525508
2025-01-15T10:00:31.440Z,0.002941,0.01655,-0.939902
2025-01-15T10:00:31.480Z,-0.010943,-0.010489,-0.976333
2025-01-15T10:00:31.520Z,0.006465,-0.021589,-1.009956
2025-01-15T10:00:31.560Z,-0.011783,0.005133,-0.321924
2025-01-15T10:00:31.600Z,-0.03235,0.017923,-1.006612
2025-01-15T10:00:31.640Z,-0.000368,0.000798,-0.878862
2025-01-15T10:00:31.680Z,0.006439,0.05022,-0.997092
2025-01-15T10:00:31.720Z,-0.003239,-0.007003,-0.666302
2025-01-15T10:00:31.760Z,0.007489,0.008737,-1.188995
2025-01-15T10:00:31.800Z,0.028348,0.040496,-0.583796
2025-01-15T10:00:31.840Z,-0.00154,-0.001932,-0.925449
2025-01-15T10:00:31.880Z,0.012067,0.03142,-0.622508
2025-01-15T10:00:31.920Z,0.008149,-0.472267,-1.08093
2025-01-15T10:00:31.960Z,-0.027405,-0.008683,-0.88263
2025-01-15T10:00:32.000Z,0.005236,0.007258,-1.575043
2025-01-15T10:00:32.040Z,0.012033,0.005066,-0.62997
2025-01-15T10:00:32.080Z,-0.035126,-0.016028,-1.482867
2025-01-15T10:00:32.120Z,-0.0446,0.037102,-1.037643
2025-01-15T10:00:32.160Z,0.014576,-0.000228,-0.310579
2025-01-15T10:00:32.200Z,-0.029064,-0.01726,-1.158458
2025-01-15T10:00:32.240Z,-0.019709,-0.012294,-0.703218
2025-01-15T10:00:32.280Z,-0.005845,-0.014609,-1.028043
2025-01-15T10:00:32.320Z,0.006383,-0.018616,-0.84399
2025-01-15T10:00:32.360Z,-0.036009,-0.018475,-1.15419
2025-01-15T10:00:32.400Z,0.502719,0.034854,-0.883708
2025-01-15T10:00:32.440Z,0.014592,0.018078,-0.952175
2025-01-15T10:00:32.480Z,-0.025388,-0.010673,-1.25543
2025-01-15T10:00:32.520Z,0.050568,0.011102,-1.111301
2025-01-15T10:00:32.560Z,-0.712084,-0.004517,-0.560897
2025-01-15T10:00:32.600Z,0.039112,-0.011282,-0.482883
2025-01-15T10:00:32.640Z,0.005608,-0.010161,-1.054694
2025-01-15T10:00:32.680Z,-0.00439,0.004041,-0.104935
2025-01-15T10:00:32.720Z,0.016946,-0.056538,-0.437461
2025-01-15T10:00:32.760Z,0.020381,-0.008477,-1.063311
2025-01-15T10:00:32.800Z,0.02424,0.010091,-1.494234
2025-01-15T10:00:32.840Z,0.012013,-0.003961,-1.025448
2025-01-15T10:00:32.880Z,0.016706,-3.2e-05,-0.737695
2025-01-15T10:00:32.920Z,0.000692,0.014311,-0.799999
2025-01-15T10:00:32.960Z,0.019689,-0.013008,-0.984898
2025-01-15T10:00:33.000Z,-0.017123,0.010634,-0.963183
2025-01-15T10:00:33.040Z,-0.001607,0.028833,-0.44072
2025-01-15T10:00:33.080Z,-0.007866,0.017273,-1.286155
2025-01-15T10:00:33.120Z,-0.013258,0.020673,-0.599623
2025-01-15T10:00:33.160Z,-0.016708,0.026596,-0.563205
2025-01-15T10:00:33.200Z,0.006437,0.025584,-0.533229
2025-01-15T10:00:33.240Z,0.003493,0.677021,-0.940676
2025-01-15T10:00:33.280Z,-0.001764,0.028238,-0.730903
2025-01-15T10:00:33.320Z,0.012395,0.010154,-1.284805
2025-01-15T10:00:33.360Z,-0.022955,-0.001093,-0.756467
2025-01-15T10:00:33.400Z,0.004785,0.008965,-1.217165
2025-01-15T10:00:33.440Z,-0.005472,0.023859,-2.019175
2025-01-15T10:00:33.480Z,-0.024521,0.023872,-1.046771
2025-01-15T10:00:33.520Z,-0.011324,-0.01605,-0.998567
2025-01-15T10:00:33.560Z,0.008386,0.014884,-1.662227
2025-01-15T10:00:33.600Z,0.020499,0.038513,-0.692366
2025-01-15T10:00:33.640Z,0.01533,-0.002835,-0.986349
2025-01-15T10:00:33.680Z,0.008444,-0.008466,-1.176179
2025-01-15T10:00:33.720Z,-0.004731,-0.01013,-1.13348
2025-01-15T10:00:33.760Z,0.018094,-0.01775,-1.36709
2025-01-15T10:00:33.800Z,-0.001748,-0.008162,-1.032956
2025-01-15T10:00:33.840Z,-0.003883,-0.016329,-1.410921
2025-01-15T10:00:33.880Z,-0.004676,-0.027439,-1.610096
2025-01-15T10:00:33.920Z,-0.008472,-0.005999,-1.306477
2025-01-15T10:00:33.960Z,-0.016601,0.015343,-0.699187
2025-01-15T10:00:34.000Z,0.015403,-0.008408,-0.892396
2025-01-15T10:00:34.040Z,-0.016515,0.021812,-0.658952
2025-01-15T10:00:34.080Z,0.006706,0.021449,-0.436277
2025-01-15T10:00:34.120Z,0.024765,-0.017857,-1.108174
2025-01-15T10:00:34.160Z,0.025463,0.0202,-0.957888
2025-01-15T10:00:34.200Z,-0.019504,0.000245,-0.739523
2025-01-15T10:00:34.240Z,-0.012073,-0.004585,-1.063702
2025-01-15T10:00:34.280Z,0.361658,0.520603,-0.795034
2025-01-15T10:00:34.320Z,-0.026453,-0.018772,-0.458336
2025-01-15T10:00:34.360Z,0.01796,0.023894,-0.983829
2025-01-15T10:00:34.400Z,0.012259,0.001321,-0.787661
2025-01-15T10:00:34.440Z,-0.00583,0.034508,-1.700334
2025-01-15T10:00:34.480Z,0.029372,-0.006965,-1.044448
2025-01-15T10:00:34.520Z,-0.011662,0.036642,-1.054378
2025-01-15T10:00:34.560Z,0.013603,-0.019831,-0.889266
2025-01-15T10:00:34.600Z,-0.05135,-0.028149,-1.095128
2025-01-15T10:00:34.640Z,0.011734,0.026917,-0.893558
2025-01-15T10:00:34.680Z,0.012306,0.003623,-1.435012
2025-01-15T10:00:34.720Z,-0.017081,-0.003159,-1.279606
2025-01-15T10:00:34.760Z,-0.003645,0.015208,-0.896047
2025-01-15T10:00:34.800Z,0.013459,0.002861,-0.641698
2025-01-15T10:00:34.840Z,0.010134,0.012545,-1.080173
2025-01-15T10:00:34.880Z,-0.009514,-0.02105,-0.829238
2025-01-15T10:00:34.920Z,0.008389,-0.012171,-1.156669
2025-01-15T10:00:34.960Z,-0.020549,0.014131,-0.819844
2025-01-15T10:00:35.000Z,0.523947,-0.004138,-1.159745
2025-01-15T10:00:35.040Z,-0.004102,0.02372,-0.813731
2025-01-15T10:00:35.080Z,-0.014964,-0.035692,-1.119254
2025-01-15T10:00:35.120Z,0.010537,0.000973,-0.975894
2025-01-15T10:00:35.160Z,0.002419,-0.059757,-1.041993
2025-01-15T10:00:35.200Z,0.025416,-0.015339,-1.502363
2025-01-15T10:00:35.240Z,-0.015705,-0.003753,-0.820859
2025-01-15T10:00:35.280Z,-0.019585,-0.009035,-1.540984
2025-01-15T10:00:35.320Z,0.003811,-0.030603,-0.864846
2025-01-15T10:00:35.360Z,0.00306,-0.006181,-1.20641
2025-01-15T10:00:35.400Z,0.003818,0.002514,-0.902995
2025-01-15T10:00:35.440Z,0.018771,-0.009671,-0.988609
2025-01-15T10:00:35.480Z,-0.028493,0.016651,-0.983637
2025-01-15T10:00:35.520Z,0.020795,0.001812,-1.119541
2025-01-15T10:00:35.560Z,-0.01089,0.014396,-0.824763
2025-01-15T10:00:35.600Z,0.019387,-0.051569,-1.243788
2025-01-15T10:00:35.640Z,0.020044,-0.012627,-1.342921
2025-01-15T10:00:35.680Z,0.024645,-0.011666,-0.670142
2025-01-15T10:00:35.720Z,-0.001598,0.010897,-1.177361
2025-01-15T10:00:35.760Z,0.019249,0.020043,-1.304951
2025-01-15T10:00:35.800Z,0.000626,0.006742,-0.685301
2025-01-15T10:00:35.840Z,0.013052,-0.03509,-0.749124
2025-01-15T10:00:35.880Z,-0.003864,0.026357,-0.875059
2025-01-15T10:00:35.920Z,-0.014551,0.022465,-1.185811
2025-01-15T10:00:35.960Z,0.017487,0.001476,-1.183591
2025-01-15T10:00:36.000Z,-0.047835,0.014267,-1.368832
2025-01-15T10:00:36.040Z,-0.00234,0.001531,-0.811556
2025-01-15T10:00:36.080Z,0.008844,-0.029399,-0.52683
2025-01-15T10:00:36.120Z,-0.011894,0.024251,-0.911052
2025-01-15T10:00:36.160Z,-0.014267,0.001053,-0.504389
2025-01-15T10:00:36.200Z,-0.008417,-0.032449,-1.069
2025-01-15T10:00:36.240Z,0.030308,-0.011108,-1.047004
2025-01-15T10:00:36.280Z,-5.1e-05,-0.000113,-1.497225
2025-01-15T10:00:36.320Z,0.016696,-0.007384,-0.634241
2025-01-15T10:00:36.360Z,-0.00863,0.017299,-1.017936
2025-01-15T10:00:36.400Z,-0.010062,0.005283,-1.329726
2025-01-15T10:00:36.440Z,-0.005292,-0.002179,-1.007415
2025-01-15T10:00:36.480Z,0.021447,-0.006168,-0.606835
2025-01-15T10:00:36.520Z,-0.035171,0.014456,-1.701665
2025-01-15T10:00:36.560Z,0.019988,0.007157,-1.144272
2025-01-15T10:00:36.600Z,0.019674,-0.062364,-0.859813
2025-01-15T10:00:36.640Z,-0.014925,0.014129,-0.69168
2025-01-15T10:00:36.680Z,-0.023307,0.017214,-1.680948
2025-01-15T10:00:36.720Z,0.590401,-0.001502,-1.506993
2025-01-15T10:00:36.760Z,-0.006286,0.037107,-1.296855
2025-01-15T10:00:36.800Z,0.009542,-0.0076,-1.276502
2025-01-15T10:00:36.840Z,0.004419,-0.017094,-0.842863
2025-01-15T10:00:36.880Z,-0.014396,0.006981,-1.215872
2025-01-15T10:00:36.920Z,-0.003539,-0.029522,-1.552598
2025-01-15T10:00:36.960Z,-0.004515,0.030572,-1.529296
2025-01-15T10:00:37.000Z,-0.000419,-0.016697,-1.518165
2025-01-15T10:00:37.040Z,-0.005729,0.011081,-0.814611
2025-01-15T10:00:37.080Z,0.00586,-0.038296,-1.071807
2025-01-15T10:00:37.120Z,-0.04073,-0.009591,-1.002345
2025-01-15T10:00:37.160Z,-0.013221,-0.010091,-1.307873
2025-01-15T10:00:37.200Z,0.031206,-0.024444,-1.011299
2025-01-15T10:00:37.240Z,-0.008022,-0.003079,-1.019014
2025-01-15T10:00:37.280Z,-0.03283,-0.007181,-0.75264
2025-01-15T10:00:37.320Z,-0.02702,-0.003959,-1.155496
2025-01-15T10:00:37.360Z,-0.007283,0.014453,-0.704667
2025-01-15T10:00:37.400Z,-0.009862,-0.009225,-1.010972
2025-01-15T10:00:37.440Z,-0.01961,-0.006019,-0.889789
2025-01-15T10:00:37.480Z,-0.007041,0.017855,-0.760599
2025-01-15T10:00:37.520Z,-0.016854,0.000667,-0.740872
2025-01-15T10:00:37.560Z,-0.028801,0.007429,-0.96321
2025-01-15T10:00:37.600Z,-0.043937,0.015394,-0.77138
2025-01-15T10:00:37.640Z,0.012727,-0.001825,-0.980247
2025-01-15T10:00:37.680Z,-0.039349,0.022399,-1.088139
2025-01-15T10:00:37.720Z,0.00615,-0.02879,-0.890451
2025-01-15T10:00:37.760Z,-0.007521,-0.032916,-1.175928
2025-01-15T10:00:37.800Z,-0.014787,-0.019219,-1.228511
2025-01-15T10:00:37.840Z,0.001515,-0.008908,-0.956319
2025-01-15T10:00:37.880Z,-0.002253,-0.011725,-0.850944
2025-01-15T10:00:37.920Z,-0.024157,0.000744,-0.667303
2025-01-15T10:00:37.960Z,-0.004566,-0.019752,-0.94768
2025-01-15T10:00:38.000Z,0.034643,-0.034447,-1.297174
2025-01-15T10:00:38.040Z,0.038118,0.010848,-1.209022
2025-01-15T10:00:38.080Z,0.005502,0.027987,-0.813189
2025-01-15T10:00:38.120Z,0.028662,-0.014096,-0.789746
2025-01-15T10:00:38.160Z,-0.034207,-0.063759,-1.444054
2025-01-15T10:00:38.200Z,0.02402,0.012378,-1.321559
2025-01-15T10:00:38.240Z,-0.029807,-0.003718,-1.283502
2025-01-15T10:00:38.280Z,0.002437,-0.001635,-1.339711
2025-01-15T10:00:38.320Z,0.017523,-0.018926,-1.005849
2025-01-15T10:00:38.360Z,0.013688,0.023549,-0.900504
2025-01-15T10:00:38.400Z,-0.014927,0.026309,-0.763525
2025-01-15T10:00:38.440Z,-0.051297,-0.008814,-1.149833
2025-01-15T10:00:38.480Z,0.01568,-0.027797,-1.097513
2025-01-15T10:00:38.520Z,0.012492,-0.002041,-1.082726
2025-01-15T10:00:38.560Z,-0.011917,-0.004299,-1.087618
2025-01-15T10:00:38.600Z,0.002114,-0.031304,-1.528522
2025-01-15T10:00:38.640Z,-0.002799,-0.056315,-0.766924
2025-01-15T10:00:38.680Z,0.008894,0.014195,-0.342906
2025-01-15T10:00:38.720Z,-0.013564,-0.031231,-0.769106
2025-01-15T10:00:38.760Z,0.00219,-0.00523,-1.303593
2025-01-15T10:00:38.800Z,0.012086,-0.002229,-0.87912
2025-01-15T10:00:38.840Z,-0.019698,0.00439,-1.196986
2025-01-15T10:00:38.880Z,0.013086,-0.018579,-1.259842
2025-01-15T10:00:38.920Z,-0.012942,0.007809,-1.652548
2025-01-15T10:00:38.960Z,0.027538,0.020328,-0.699033
2025-01-15T10:00:39.000Z,0.016726,0.012335,-1.095376
2025-01-15T10:00:39.040Z,0.475237,0.042105,-0.823503
2025-01-15T10:00:39.080Z,-0.016484,0.012893,-1.268525
2025-01-15T10:00:39.120Z,0.015205,-0.008003,-1.182273
2025-01-15T10:00:39.160Z,0.022507,-0.015652,-0.871432
2025-01-15T10:00:39.200Z,-0.021216,0.001754,-1.630051
2025-01-15T10:00:39.240Z,-0.017713,-0.01681,-1.128675
2025-01-15T10:00:39.280Z,0.021349,-0.018167,-0.650075
2025-01-15T10:00:39.320Z,0.002223,0.009399,-1.453164
2025-01-15T10:00:39.360Z,-0.020364,0.009957,-0.866638
2025-01-15T10:00:39.400Z,-0.043624,0.739923,-1.192051
2025-01-15T10:00:39.440Z,0.023079,0.001098,-1.116424
2025-01-15T10:00:39.480Z,-4e-05,-0.040803,-0.802385
2025-01-15T10:00:39.520Z,-0.010529,0.004655,-1.059973
2025-01-15T10:00:39.560Z,0.018801,0.020965,-1.121267
2025-01-15T10:00:39.600Z,-0.007801,0.016014,-1.509678
2025-01-15T10:00:39.640Z,-0.022925,-0.005941,-1.278427
2025-01-15T10:00:39.680Z,0.025623,-0.022784,-0.70833
2025-01-15T10:00:39.720Z,-0.022763,-0.040642,-1.28498
2025-01-15T10:00:39.760Z,0.020523,0.02461,-0.793266
2025-01-15T10:00:39.800Z,0.002784,-0.003088,-0.52935
2025-01-15T10:00:39.840Z,0.030117,0.024251,-1.329873
2025-01-15T10:00:39.880Z,-0.004992,-0.002298,-1.020135
2025-01-15T10:00:39.920Z,0.020291,-0.013027,-0.555506
2025-01-15T10:00:39.960Z,0.709194,0.016819,-1.688513
2025-01-15T10:00:40.000Z,0.043503,0.001175,-1.20688
2025-01-15T10:00:40.040Z,-0.029493,0.007388,-0.647833
2025-01-15T10:00:40.080Z,0.028556,-0.023934,-0.94397
2025-01-15T10:00:40.120Z,-0.03283,0.003339,-1.342154
2025-01-15T10:00:40.160Z,-0.003416,-0.025021,-1.227626
2025-01-15T10:00:40.200Z,0.014356,-0.022205,-0.672684
2025-01-15T10:00:40.240Z,0.000769,0.030297,-1.508631
2025-01-15T10:00:40.280Z,-0.007908,-0.007554,-0.635133
2025-01-15T10:00:40.320Z,0.024517,-0.013186,-0.490852
2025-01-15T10:00:40.360Z,0.021551,0.005848,-1.231604
2025-01-15T10:00:40.400Z,-0.000364,-0.038244,-0.286436
2025-01-15T10:00:40.440Z,0.739685,-0.009666,-0.855863
2025-01-15T10:00:40.480Z,-0.008934,-0.011694,-0.592118
2025-01-15T10:00:40.520Z,-0.00349,-0.012045,-1.058636
2025-01-15T10:00:40.560Z,0.01815,0.005914,-0.641132
2025-01-15T10:00:40.600Z,0.004119,0.007427,-0.928991
2025-01-15T10:00:40.640Z,0.001365,0.005286,-1.058898
2025-01-15T10:00:40.680Z,0.010593,0.013202,-0.606321
2025-01-15T10:00:40.720Z,-0.006086,-0.023324,-1.105498
2025-01-15T10:00:40.760Z,-0.020435,-0.487165,-1.153704
2025-01-15T10:00:40.800Z,0.020159,-0.019312,-0.734317
2025-01-15T10:00:40.840Z,-0.027334,0.021113,-0.829171
2025-01-15T10:00:40.880Z,0.001528,-0.001568,-1.154813
2025-01-15T10:00:40.920Z,0.513109,0.020412,-1.198204
2025-01-15T10:00:40.960Z,-0.054767,0.014028,-1.227836
2025-01-15T10:00:41.000Z,0.001173,-0.008822,-1.111386
2025-01-15T10:00:41.040Z,0.004042,0.003109,-1.193822
2025-01-15T10:00:41.080Z,-0.026784,0.022369,-0.773647
2025-01-15T10:00:41.120Z,0.022533,-0.048475,-1.051499
2025-01-15T10:00:41.160Z,0.029599,0.015375,-1.099187
2025-01-15T10:00:41.200Z,-0.003922,0.037182,-0.824648
2025-01-15T10:00:41.240Z,-0.011809,-0.008591,-1.067104
2025-01-15T10:00:41.280Z,-0.007265,0.003522,-1.166695
2025-01-15T10:00:41.320Z,-0.004744,0.011964,-0.795646
2025-01-15T10:00:41.360Z,0.013246,0.00599,-1.25717
2025-01-15T10:00:41.400Z,0.00446,-0.014828,-1.285801
2025-01-15T10:00:41.440Z,-0.024311,-0.003633,-1.396074
2025-01-15T10:00:41.480Z,-0.018263,0.008918,-1.289567
2025-01-15T10:00:41.520Z,-0.002677,-0.022575,-1.356924
2025-01-15T10:00:41.560Z,0.007311,0.027115,-1.087686
2025-01-15T10:00:41.600Z,0.033663,0.02317,-0.610061
2025-01-15T10:00:41.640Z,0.003722,0.003685,-1.049142
2025-01-15T10:00:41.680Z,0.024129,0.019428,-0.974017
2025-01-15T10:00:41.720Z,0.003973,-0.023085,-1.076316
2025-01-15T10:00:41.760Z,-0.007577,0.007329,-0.91639
2025-01-15T10:00:41.800Z,-0.002762,-0.012854,-0.775817
2025-01-15T10:00:41.840Z,-0.029446,-0.005401,-0.75444
2025-01-15T10:00:41.880Z,-0.035376,-0.013845,-0.648392
2025-01-15T10:00:41.920Z,0.023029,-0.000734,-1.089521
2025-01-15T10:00:41.960Z,6.7e-05,-0.005441,-0.995988
2025-01-15T10:00:42.000Z,0.006701,0.017314,-0.743867
2025-01-15T10:00:42.040Z,0.001856,-0.008309,-1.40416
2025-01-15T10:00:42.080Z,-0.013914,-0.026547,-1.414797
2025-01-15T10:00:42.120Z,-0.044853,0.034383,-0.885292
2025-01-15T10:00:42.160Z,-0.01432,0.030434,-0.275811
2025-01-15T10:00:42.200Z,0.007288,0.002587,-0.660169
2025-01-15T10:00:42.240Z,-0.028917,-0.019618,-1.265832
2025-01-15T10:00:42.280Z,0.002228,-0.000257,-0.772791
2025-01-15T10:00:42.320Z,-0.005044,0.001693,-0.784588
2025-01-15T10:00:42.360Z,-0.007404,-0.010487,-1.117652
2025-01-15T10:00:42.400Z,-0.004135,-0.008807,-1.167266
2025-01-15T10:00:42.440Z,0.028971,-0.026694,-0.793047
2025-01-15T10:00:42.480Z,0.003792,0.013057,-1.019399
2025-01-15T10:00:42.520Z,-0.485471,0.002466,-1.325095
2025-01-15T10:00:42.560Z,-0.009428,-0.01728,-1.66467
2025-01-15T10:00:42.600Z,-0.009299,-0.008765,-1.307269
2025-01-15T10:00:42.640Z,0.011721,0.028565,-1.19464
2025-01-15T10:00:42.680Z,-0.022996,0.001001,-1.408767
2025-01-15T10:00:42.720Z,0.00338,-0.013698,-1.393408
2025-01-15T10:00:42.760Z,-0.00814,0.005497,-1.401915
2025-01-15T10:00:42.800Z,0.001377,-0.01258,-1.213515
2025-01-15T10:00:42.840Z,0.004442,-0.030474,-0.993441
2025-01-15T10:00:42.880Z,-0.024815,0.005383,-1.158242
2025-01-15T10:00:42.920Z,0.021771,0.012835,-1.083753
2025-01-15T10:00:42.960Z,0.007975,-0.006874,-0.489916
2025-01-15T10:00:43.000Z,-0.031102,-0.009413,-0.840033
2025-01-15T10:00:43.040Z,-0.000832,-0.011486,-1.052254
2025-01-15T10:00:43.080Z,0.016604,-0.011731,-0.796691
2025-01-15T10:00:43.120Z,0.007742,0.008079,-1.076156
2025-01-15T10:00:43.160Z,-0.392355,0.580522,-1.863526
2025-01-15T10:00:43.200Z,-0.013075,-0.005858,-0.995249
2025-01-15T10:00:43.240Z,0.43202,-0.014682,-1.119007
2025-01-15T10:00:43.280Z,-0.038195,-0.020419,-0.954947
2025-01-15T10:00:43.320Z,-0.016458,-0.014404,-1.164268
2025-01-15T10:00:43.360Z,-0.00915,0.015463,-0.520001
2025-01-15T10:00:43.400Z,-0.038751,0.009439,-1.140036
2025-01-15T10:00:43.440Z,0.00441,0.012532,-1.588177
2025-01-15T10:00:43.480Z,-0.00804,-0.041643,-1.022814
2025-01-15T10:00:43.520Z,0.000995,-0.012749,-1.387576
2025-01-15T10:00:43.560Z,-0.010714,-0.026753,-0.904056
2025-01-15T10:00:43.600Z,-0.026536,-0.024123,-1.254536
2025-01-15T10:00:43.640Z,-0.006902,0.02197,-0.338692
2025-01-15T10:00:43.680Z,-0.034508,-0.028294,-1.258186
2025-01-15T10:00:43.720Z,-0.01179,-0.036971,-0.978534
2025-01-15T10:00:43.760Z,0.008338,0.005851,-1.102116
2025-01-15T10:00:43.800Z,0.023627,-0.019075,-1.215336
2025-01-15T10:00:43.840Z,0.040628,-0.045527,-1.071398
2025-01-15T10:00:43.880Z,-0.009777,0.036547,-0.77869
2025-01-15T10:00:43.920Z,-0.029862,-0.032758,-0.933491
2025-01-15T10:00:43.960Z,-0.036556,-0.014561,-1.017876
2025-01-15T10:00:44.000Z,0.017868,-0.020048,-1.277482
2025-01-15T10:00:44.040Z,0.026911,-0.000158,-0.702502
2025-01-15T10:00:44.080Z,0.020251,0.043775,-0.884579
2025-01-15T10:00:44.120Z,0.031143,-0.004407,-0.749878
2025-01-15T10:00:44.160Z,0.026377,0.017785,-1.484893
2025-01-15T10:00:44.200Z,0.009736,-0.020428,-0.798419
2025-01-15T10:00:44.240Z,-0.012559,0.006517,-1.248167
2025-01-15T10:00:44.280Z,-0.031457,0.014192,-1.127753
2025-01-15T10:00:44.320Z,0.007133,-0.000395,-1.1823
2025-01-15T10:00:44.360Z,0.034556,-0.011968,-1.30161
2025-01-15T10:00:44.400Z,0.011455,-0.020839,-1.692945
2025-01-15T10:00:44.440Z,-0.015083,-0.004014,-1.127426
2025-01-15T10:00:44.480Z,0.002896,0.030264,-0.726189
2025-01-15T10:00:44.520Z,0.009131,0.009306,-1.4269
2025-01-15T10:00:44.560Z,0.00367,-0.02274,-1.057062
2025-01-15T10:00:44.600Z,-0.006837,0.005657,-0.486385
2025-01-15T10:00:44.640Z,-0.011403,0.004941,-1.386085
2025-01-15T10:00:44.680Z,0.009139,-0.003729,-1.061607
2025-01-15T10:00:44.720Z,0.004374,0.018738,-0.875646
2025-01-15T10:00:44.760Z,-0.023365,-0.001462,-1.181238
2025-01-15T10:00:44.800Z,0.009431,-0.012805,-1.171154
2025-01-15T10:00:44.840Z,-0.589383,0.007078,-1.176252
2025-01-15T10:00:44.880Z,-0.005432,0.005376,-1.062181
2025-01-15T10:00:44.920Z,0.031693,-0.012868,-1.757838
2025-01-15T10:00:44.960Z,-0.009408,-0.004029,-0.927857
2025-01-15T10:00:45.000Z,-0.020125,0.026388,-0.76359
2025-01-15T10:00:45.040Z,-0.000475,-0.006529,-1.17871
2025-01-15T10:00:45.080Z,-0.003907,0.010398,-0.407918
2025-01-15T10:00:45.120Z,0.048338,-0.015399,-1.30722
2025-01-15T10:00:45.160Z,0.028823,-0.004227,-0.843143
2025-01-15T10:00:45.200Z,-0.020435,-0.017285,-0.616197
2025-01-15T10:00:45.240Z,0.014314,-0.009271,-2.11279
2025-01-15T10:00:45.280Z,-0.017206,0.032857,-1.14567
2025-01-15T10:00:45.320Z,-0.025216,0.00593,-0.868018
2025-01-15T10:00:45.360Z,-0.01555,0.050386,-1.312983
2025-01-15T10:00:45.400Z,-0.0133,-0.006636,-1.087176
2025-01-15T10:00:45.440Z,-0.017522,-0.022767,-0.536183
2025-01-15T10:00:45.480Z,0.047646,0.006037,-1.030165
2025-01-15T10:00:45.520Z,0.002557,-0.007914,-0.993558
2025-01-15T10:00:45.560Z,-0.026533,0.02136,-1.012137
2025-01-15T10:00:45.600Z,0.006165,-0.033231,-0.786746
2025-01-15T10:00:45.640Z,-0.009521,0.007329,-1.195967
2025-01-15T10:00:45.680Z,0.002345,0.000915,-0.859491
2025-01-15T10:00:45.720Z,-0.024787,-0.006978,-1.011061
2025-01-15T10:00:45.760Z,0.770539,-0.105903,-1.596585
2025-01-15T10:00:45.800Z,0.00099,-0.022749,-1.122399
2025-01-15T10:00:45.840Z,0.007451,-0.027634,-1.151074
2025-01-15T10:00:45.880Z,-0.015599,0.004825,-1.07928
2025-01-15T10:00:45.920Z,0.645868,-0.003748,-0.879841
2025-01-15T10:00:45.960Z,0.016116,-0.01444,-0.929897
2025-01-15T10:00:46.000Z,-0.019223,0.015963,-0.579127
2025-01-15T10:00:46.040Z,0.012489,-0.018877,-0.984449
2025-01-15T10:00:46.080Z,-0.025857,0.033961,-0.746286
2025-01-15T10:00:46.120Z,-0.020643,-0.032415,-1.510848
2025-01-15T10:00:46.160Z,0.022961,0.015291,-0.703815
2025-01-15T10:00:46.200Z,0.006995,0.026843,-0.905745
2025-01-15T10:00:46.240Z,0.012236,0.005524,-1.013918
2025-01-15T10:00:46.280Z,0.000632,0.005369,-1.530014
2025-01-15T10:00:46.320Z,0.00933,-0.008204,-0.672388
2025-01-15T10:00:46.360Z,0.004481,0.018622,-1.151602
2025-01-15T10:00:46.400Z,-0.017792,-0.018393,-0.980554
2025-01-15T10:00:46.440Z,-0.005475,0.042331,-1.20199
2025-01-15T10:00:46.480Z,-0.000715,0.00053,-0.998616
2025-01-15T10:00:46.520Z,0.014621,-0.017481,-1.103044
2025-01-15T10:00:46.560Z,0.029071,-0.045513,-1.170849
2025-01-15T10:00:46.600Z,0.017134,-0.014717,-0.722127
2025-01-15T10:00:46.640Z,-0.013094,0.029319,-0.758549
2025-01-15T10:00:46.680Z,0.008155,-0.026498,-0.577712
2025-01-15T10:00:46.720Z,-0.013602,0.018853,-0.675454
2025-01-15T10:00:46.760Z,0.003904,-0.00522,-1.243614
2025-01-15T10:00:46.800Z,0.009243,0.00542,-1.201956
2025-01-15T10:00:46.840Z,0.011666,0.004008,-1.367825
2025-01-15T10:00:46.880Z,0.025328,-0.01508,-0.398919
2025-01-15T10:00:46.920Z,-0.033688,-0.024717,-1.081028
2025-01-15T10:00:46.960Z,-0.013363,-0.00907,-1.027678
2025-01-15T10:00:47.000Z,-0.022904,0.009695,-0.905796
2025-01-15T10:00:47.040Z,-0.011546,0.02038,-0.799463
2025-01-15T10:00:47.080Z,-0.022945,0.010247,-1.310226
2025-01-15T10:00:47.120Z,0.005457,-0.004733,-1.339514
2025-01-15T10:00:47.160Z,-0.03138,0.003093,-0.974828
2025-01-15T10:00:47.200Z,0.363917,0.15914,-0.764512
2025-01-15T10:00:47.240Z,-0.042145,-0.029368,-0.692721
2025-01-15T10:00:47.280Z,-0.016458,-0.033981,-1.113245
2025-01-15T10:00:47.320Z,-0.009913,-0.018484,-1.052847
2025-01-15T10:00:47.360Z,-0.010918,-0.030605,-1.328572
2025-01-15T10:00:47.400Z,-0.001458,0.036816,-0.775455
2025-01-15T10:00:47.440Z,-0.01815,0.011735,-1.685344
2025-01-15T10:00:47.480Z,0.019413,-0.055488,-0.961154
2025-01-15T10:00:47.520Z,0.020689,-0.019577,-1.323408
2025-01-15T10:00:47.560Z,-0.017488,0.012021,-0.889683
2025-01-15T10:00:47.600Z,-0.004009,-0.01661,-0.949415
2025-01-15T10:00:47.640Z,-0.002894,-0.011314,-1.149918
2025-01-15T10:00:47.680Z,0.015013,0.012115,-1.558606
2025-01-15T10:00:47.720Z,0.466733,-0.024956,-0.63998
2025-01-15T10:00:47.760Z,0.001597,0.036626,-1.012457
2025-01-15T10:00:47.800Z,0.020834,-0.009913,-1.188302
2025-01-15T10:00:47.840Z,-0.569617,0.001989,-0.421802
2025-01-15T10:00:47.880Z,-0.022237,-0.00145,-1.443352
2025-01-15T10:00:47.920Z,0.012559,0.003598,-0.900664
2025-01-15T10:00:47.960Z,-0.022821,0.012634,-0.990862
2025-01-15T10:00:48.000Z,0.010213,0.004042,-0.90627
2025-01-15T10:00:48.040Z,-0.007049,0.009976,-0.854911
2025-01-15T10:00:48.080Z,0.023747,0.015524,-0.874684
2025-01-15T10:00:48.120Z,-0.004247,-0.003121,-1.154635
2025-01-15T10:00:48.160Z,-0.007535,-0.032398,-0.91783
2025-01-15T10:00:48.200Z,0.029513,-0.008434,-0.96909
2025-01-15T10:00:48.240Z,0.006132,0.027464,-0.52611
2025-01-15T10:00:48.280Z,-0.004898,-0.006116,-0.640964
2025-01-15T10:00:48.320Z,-0.015195,-0.013804,-0.793294
2025-01-15T10:00:48.360Z,0.032309,-0.016208,-1.402218
2025-01-15T10:00:48.400Z,0.029231,-0.000227,-1.162376
2025-01-15T10:00:48.440Z,-0.007851,-0.02729,-1.159665
2025-01-15T10:00:48.480Z,0.03537,-0.02122,-1.063043
2025-01-15T10:00:48.520Z,-0.007156,0.011328,-0.966495
2025-01-15T10:00:48.560Z,-0.007538,0.006336,-0.522731
2025-01-15T10:00:48.600Z,-0.001178,0.036896,-1.047707
2025-01-15T10:00:48.640Z,-0.00206,-0.006715,-0.810571
2025-01-15T10:00:48.680Z,0.036993,0.001777,-0.680167
2025-01-15T10:00:48.720Z,0.012465,0.011811,-0.82016
2025-01-15T10:00:48.760Z,0.012898,0.001621,-0.791442
2025-01-15T10:00:48.800Z,-0.02969,0.001218,-1.386267
2025-01-15T10:00:48.840Z,0.002393,-0.006864,-1.379043
2025-01-15T10:00:48.880Z,-0.013229,0.031928,-0.747616
2025-01-15T10:00:48.920Z,0.007724,0.020924,-1.001481
2025-01-15T10:00:48.960Z,0.030261,-0.004039,-0.795075
2025-01-15T10:00:49.000Z,0.010302,0.039804,-0.709695
2025-01-15T10:00:49.040Z,-0.033513,0.015615,-0.903138
2025-01-15T10:00:49.080Z,-0.004359,-0.025068,-1.489705
2025-01-15T10:00:49.120Z,-0.010471,-0.014114,-0.852495
2025-01-15T10:00:49.160Z,-0.015218,0.00113,-0.818814
2025-01-15T10:00:49.200Z,0.005815,0.025026,-1.149399
2025-01-15T10:00:49.240Z,-0.001758,-0.019324,-0.389688
2025-01-15T10:00:49.280Z,-0.023827,0.0081,-0.624565
2025-01-15T10:00:49.320Z,-0.005356,0.04599,-1.385748
2025-01-15T10:00:49.360Z,0.008157,0.016074,-0.732225
2025-01-15T10:00:49.400Z,0.034815,-0.0129,-1.237902
2025-01-15T10:00:49.440Z,-0.010566,-0.037699,-1.211621
2025-01-15T10:00:49.480Z,0.013769,2.9e-05,-1.346101
2025-01-15T10:00:49.520Z,0.044904,-0.04198,-1.060533
2025-01-15T10:00:49.560Z,0.010161,0.025762,-1.05515
2025-01-15T10:00:49.600Z,-0.006578,-0.010817,-0.915775
2025-01-15T10:00:49.640Z,0.024959,0.017607,-1.9177
2025-01-15T10:00:49.680Z,-0.026508,-0.035312,-1.171313
2025-01-15T10:00:49.720Z,0.784222,0.042203,-1.108456
2025-01-15T10:00:49.760Z,-0.003345,0.018903,-1.022962
2025-01-15T10:00:49.800Z,0.017072,0.019151,-0.814318
2025-01-15T10:00:49.840Z,0.002904,-0.012283,-1.178658
2025-01-15T10:00:49.880Z,0.010949,0.017996,-0.985818
2025-01-15T10:00:49.920Z,-0.03585,0.004659,-0.985422
2025-01-15T10:00:49.960Z,-0.006706,0.035149,-0.84238
2025-01-15T10:00:50.000Z,0.003062,-0.002774,-1.089
2025-01-15T10:00:50.040Z,-0.018612,-0.018064,-1.027165
2025-01-15T10:00:50.080Z,-0.007475,-0.003205,-0.711902
2025-01-15T10:00:50.120Z,-0.014052,-0.005033,-0.717066
2025-01-15T10:00:50.160Z,0.019697,-0.017167,-1.570304
2025-01-15T10:00:50.200Z,0.617332,0.02848,-1.00561
2025-01-15T10:00:50.240Z,-0.005636,-0.000416,-0.740634
2025-01-15T10:00:50.280Z,0.028377,-0.019178,-0.569488
2025-01-15T10:00:50.320Z,0.03608,0.001102,-0.652926
2025-01-15T10:00:50.360Z,-0.467591,-0.048876,-0.828057
2025-01-15T10:00:50.400Z,0.026498,0.029001,-1.257046
2025-01-15T10:00:50.440Z,0.014236,-0.022108,-0.927412
2025-01-15T10:00:50.480Z,0.024812,-0.004989,-1.00068
2025-01-15T10:00:50.520Z,-0.014409,0.009526,-0.834835
2025-01-15T10:00:50.560Z,0.004435,0.003342,-0.646297
2025-01-15T10:00:50.600Z,0.016325,-0.015886,-1.082126
2025-01-15T10:00:50.640Z,0.021515,-0.007961,-1.319559
2025-01-15T10:00:50.680Z,-0.001109,-0.024081,-1.055557
2025-01-15T10:00:50.720Z,-0.001557,-0.725421,-1.303118
2025-01-15T10:00:50.760Z,0.001632,-0.03406,-0.96612
2025-01-15T10:00:50.800Z,0.034809,-0.011231,-1.36578
2025-01-15T10:00:50.840Z,0.021248,-0.713287,-1.605714
2025-01-15T10:00:50.880Z,0.61363,-0.037943,-1.743694
2025-01-15T10:00:50.920Z,0.000682,-0.006452,-1.348508
2025-01-15T10:00:50.960Z,-0.020728,-0.026507,-0.29762
2025-01-15T10:00:51.000Z,-0.021779,-0.005053,-1.063204
2025-01-15T10:00:51.040Z,-0.020355,-0.001085,-1.134881
2025-01-15T10:00:51.080Z,0.001846,-0.014745,-0.674056
2025-01-15T10:00:51.120Z,0.01962,0.009488,-1.019578
2025-01-15T10:00:51.160Z,0.005877,-0.001371,-0.561071
2025-01-15T10:00:51.200Z,0.024231,-0.003215,-1.048105
2025-01-15T10:00:51.240Z,-0.013331,-0.023568,-0.990445
2025-01-15T10:00:51.280Z,-0.044599,0.002007,-0.626983
2025-01-15T10:00:51.320Z,-0.020183,-0.0202,-1.337538
2025-01-15T10:00:51.360Z,0.030373,-0.012548,-1.240033
2025-01-15T10:00:51.400Z,0.010852,0.023122,-0.880889
2025-01-15T10:00:51.440Z,-0.028056,0.020684,-0.412834
2025-01-15T10:00:51.480Z,-0.029083,-0.022823,-0.871113
2025-01-15T10:00:51.520Z,-0.009135,0.001914,-0.769058
2025-01-15T10:00:51.560Z,0.032152,-0.026224,-0.874773
2025-01-15T10:00:51.600Z,-0.004094,0.002511,-0.926373
2025-01-15T10:00:51.640Z,0.027735,-0.008644,-0.944021
2025-01-15T10:00:51.680Z,0.002294,-0.012781,-1.033919
2025-01-15T10:00:51.720Z,0.010645,0.030938,-1.165776
2025-01-15T10:00:51.760Z,-0.012127,-0.016248,-1.51288
2025-01-15T10:00:51.800Z,-0.007915,0.018343,-1.291081
2025-01-15T10:00:51.840Z,-0.006682,-0.007308,-1.003022
2025-01-15T10:00:51.880Z,0.022488,0.018246,-0.647785
2025-01-15T10:00:51.920Z,-0.014915,-0.007231,-0.859759
2025-01-15T10:00:51.960Z,0.006183,-0.000561,-1.155775
2025-01-15T10:00:52.000Z,0.027179,-0.029334,-1.095485
2025-01-15T10:00:52.040Z,0.018982,-0.0053,-0.974171
2025-01-15T10:00:52.080Z,0.005093,0.060492,-0.352113
2025-01-15T10:00:52.120Z,0.008597,0.009044,-1.316153
2025-01-15T10:00:52.160Z,-0.01074,-0.010189,-0.927462
2025-01-15T10:00:52.200Z,-0.00941,0.01157,-1.487561
2025-01-15T10:00:52.240Z,0.000588,-0.023353,-1.0865
2025-01-15T10:00:52.280Z,0.00076,-0.018803,-1.26262
2025-01-15T10:00:52.320Z,-0.035022,-0.007145,-0.797271
2025-01-15T10:00:52.360Z,-0.004525,0.023382,-0.958126
2025-01-15T10:00:52.400Z,0.000847,0.031367,-1.054493
2025-01-15T10:00:52.440Z,0.017214,-0.007028,-1.129018
2025-01-15T10:00:52.480Z,0.020182,-0.027575,-1.147075
2025-01-15T10:00:52.520Z,-0.004883,-0.022783,-0.6553
2025-01-15T10:00:52.560Z,0.013384,0.009127,-1.539866
2025-01-15T10:00:52.600Z,0.00365,-0.01764,-1.031105
2025-01-15T10:00:52.640Z,0.012851,0.015953,-1.353893
2025-01-15T10:00:52.680Z,-0.010654,0.027393,-0.607601
2025-01-15T10:00:52.720Z,-0.010569,0.007989,-0.801424
2025-01-15T10:00:52.760Z,-0.014001,-0.011709,-0.969376
2025-01-15T10:00:52.800Z,-0.023014,-0.032143,-0.740089
2025-01-15T10:00:52.840Z,-0.031104,-0.006109,-1.320973
2025-01-15T10:00:52.880Z,0.014693,-0.04346,-1.201376
2025-01-15T10:00:52.920Z,-0.022251,0.000617,-1.581169
2025-01-15T10:00:52.960Z,0.004957,-0.000184,-0.874367
2025-01-15T10:00:53.000Z,-0.001661,0.003022,-0.986975
2025-01-15T10:00:53.040Z,0.016305,0.037796,-0.808771
2025-01-15T10:00:53.080Z,-0.008211,-0.004295,-0.524637
2025-01-15T10:00:53.120Z,0.009396,0.014079,-0.738116
2025-01-15T10:00:53.160Z,0.028176,-0.004149,-0.952859
2025-01-15T10:00:53.200Z,-0.008586,0.006693,-1.205413
2025-01-15T10:00:53.240Z,0.014849,-0.043569,-1.252101
2025-01-15T10:00:53.280Z,0.012796,-0.036821,-1.131309
2025-01-15T10:00:53.320Z,0.045086,0.001197,-0.612058
2025-01-15T10:00:53.360Z,-0.023282,0.005223,-1.055301
2025-01-15T10:00:53.400Z,0.009943,-0.012183,-1.170227
2025-01-15T10:00:53.440Z,-0.024366,-0.003564,-1.087447
2025-01-15T10:00:53.480Z,-0.015523,0.004656,-0.980558
2025-01-15T10:00:53.520Z,0.689737,0.047013,-0.695078
2025-01-15T10:00:53.560Z,0.012759,-0.012132,-1.256164
2025-01-15T10:00:53.600Z,0.004054,0.046963,-1.063224
2025-01-15T10:00:53.640Z,-0.022422,-0.03064,0.047711
2025-01-15T10:00:53.680Z,-0.028832,-0.011563,-0.774701
2025-01-15T10:00:53.720Z,-0.032136,-0.019802,-0.873888
2025-01-15T10:00:53.760Z,0.036101,-0.028449,-0.494851
2025-01-15T10:00:53.800Z,-0.016018,0.00306,-1.058416
2025-01-15T10:00:53.840Z,-0.023135,-0.004521,-1.442989
2025-01-15T10:00:53.880Z,-0.024925,0.029051,-0.987779
2025-01-15T10:00:53.920Z,-0.016073,-0.028888,-0.88492
2025-01-15T10:00:53.960Z,-0.001707,-0.022183,-0.674333
2025-01-15T10:00:54.000Z,-0.004233,0.005728,-1.216886
2025-01-15T10:00:54.040Z,0.008772,0.010288,-0.657389
2025-01-15T10:00:54.080Z,0.040265,-0.023031,-0.558748
2025-01-15T10:00:54.120Z,0.009722,-0.024823,-1.001377
2025-01-15T10:00:54.160Z,0.003327,-0.001382,-1.437108
2025-01-15T10:00:54.200Z,0.021019,0.015338,-1.083631
2025-01-15T10:00:54.240Z,-0.014816,0.038686,-1.014774
2025-01-15T10:00:54.280Z,0.014719,-0.029593,-1.156959
2025-01-15T10:00:54.320Z,-0.004094,0.013969,-1.007722
2025-01-15T10:00:54.360Z,0.028691,0.04483,-1.062521
2025-01-15T10:00:54.400Z,-0.00565,0.003874,-0.919084
2025-01-15T10:00:54.440Z,0.034676,-0.019001,-0.817029
2025-01-15T10:00:54.480Z,-0.011811,-0.002709,-1.227152
2025-01-15T10:00:54.520Z,0.013925,0.010907,-0.85518
2025-01-15T10:00:54.560Z,-0.006833,0.026835,-1.417321
2025-01-15T10:00:54.600Z,0.019113,-0.000833,-1.159981
2025-01-15T10:00:54.640Z,-0.006244,-0.005109,-0.838379
2025-01-15T10:00:54.680Z,0.033586,0.002672,-0.76751
2025-01-15T10:00:54.720Z,-0.013937,0.004293,-0.983403
2025-01-15T10:00:54.760Z,0.00527,-0.027373,-0.630334
2025-01-15T10:00:54.800Z,0.030388,-0.003126,-0.989483
2025-01-15T10:00:54.840Z,-0.024629,0.022993,-1.232552
2025-01-15T10:00:54.880Z,0.009598,-0.028166,-1.095035
2025-01-15T10:00:54.920Z,-0.006072,-0.046889,-1.378322
2025-01-15T10:00:54.960Z,0.005201,0.007889,-1.20814
2025-01-15T10:00:55.000Z,-0.000991,0.025575,-0.689273
2025-01-15T10:00:55.040Z,-0.606593,0.029439,-0.709994
2025-01-15T10:00:55.080Z,0.022,-0.012827,-0.373423
2025-01-15T10:00:55.120Z,-0.011984,0.007016,-1.02328
2025-01-15T10:00:55.160Z,-0.021869,-0.012494,-1.113678
2025-01-15T10:00:55.200Z,-0.021914,0.015771,-1.020669
2025-01-15T10:00:55.240Z,0.018862,-0.034418,-0.80104
2025-01-15T10:00:55.280Z,0.015708,-0.010972,-0.556101
2025-01-15T10:00:55.320Z,0.000398,-0.002215,-1.581097
2025-01-15T10:00:55.360Z,-0.018413,-0.026248,-0.886386
2025-01-15T10:00:55.400Z,0.018132,0.006259,-1.550017
2025-01-15T10:00:55.440Z,-0.015957,0.004781,-1.333721
2025-01-15T10:00:55.480Z,-0.004443,-0.024629,-0.81791
2025-01-15T10:00:55.520Z,0.027425,-0.003769,-1.015152
2025-01-15T10:00:55.560Z,0.009366,0.005487,-1.109669
2025-01-15T10:00:55.600Z,0.013264,-0.013654,-1.116084
2025-01-15T10:00:55.640Z,-0.74532,0.003093,-0.877486
2025-01-15T10:00:55.680Z,-0.026527,-0.007914,-0.479787
2025-01-15T10:00:55.720Z,0.006369,-0.019363,-0.781205
2025-01-15T10:00:55.760Z,0.023642,0.019398,-1.112905
2025-01-15T10:00:55.800Z,0.016907,0.007202,-0.895077
2025-01-15T10:00:55.840Z,0.00994,-0.015805,-0.715256
2025-01-15T10:00:55.880Z,0.016128,-0.031508,-1.060032
2025-01-15T10:00:55.920Z,0.006883,0.011504,-0.942307
2025-01-15T10:00:55.960Z,-0.005283,-0.421952,-1.271075
2025-01-15T10:00:56.000Z,-0.001473,0.022536,-0.707317
2025-01-15T10:00:56.040Z,-0.046154,-0.006028,-1.156522
2025-01-15T10:00:56.080Z,-0.028675,-0.021895,-0.781791
2025-01-15T10:00:56.120Z,-0.015024,-0.009134,-0.677804
2025-01-15T10:00:56.160Z,-0.001168,0.004507,-0.794883
2025-01-15T10:00:56.200Z,0.047732,-0.024513,-1.432619
2025-01-15T10:00:56.240Z,-0.007427,0.031066,-0.924655
2025-01-15T10:00:56.280Z,-0.023861,-0.018437,-0.714652
2025-01-15T10:00:56.320Z,0.00691,-0.016244,-0.923904
2025-01-15T10:00:56.360Z,-0.012686,0.010141,-0.416076
2025-01-15T10:00:56.400Z,-0.057507,0.020062,-1.239825
2025-01-15T10:00:56.440Z,0.001208,-0.003673,-1.675356
2025-01-15T10:00:56.480Z,0.012961,0.007407,-1.481231
2025-01-15T10:00:56.520Z,0.000775,0.003159,-0.90821
2025-01-15T10:00:56.560Z,0.007156,-0.000391,-1.095124
2025-01-15T10:00:56.600Z,-0.041734,-0.025395,-1.107195
2025-01-15T10:00:56.640Z,0.013686,0.02289,-0.768074
2025-01-15T10:00:56.680Z,-0.012671,-0.01523,-1.277725
2025-01-15T10:00:56.720Z,-0.011043,0.021623,-1.020385
2025-01-15T10:00:56.760Z,-0.007327,-0.033439,-1.452056
2025-01-15T10:00:56.800Z,-0.007144,0.027965,-1.067832
2025-01-15T10:00:56.840Z,0.006918,-0.001387,-1.256371
2025-01-15T10:00:56.880Z,0.002229,-0.007104,-1.102065
2025-01-15T10:00:56.920Z,-0.019386,0.040694,-1.225126
2025-01-15T10:00:56.960Z,0.01245,0.026874,-1.40936
2025-01-15T10:00:57.000Z,0.010641,-0.029566,-1.477207
2025-01-15T10:00:57.040Z,0.020892,0.007199,-1.512304
2025-01-15T10:00:57.080Z,0.005008,-0.00273,-1.657658
2025-01-15T10:00:57.120Z,0.013014,-0.009319,-1.07936
2025-01-15T10:00:57.160Z,-0.007363,-0.011596,-0.243702
2025-01-15T10:00:57.200Z,-0.014615,-0.028352,-1.176425
2025-01-15T10:00:57.240Z,-0.015672,-0.009502,-0.970244
2025-01-15T10:00:57.280Z,0.017158,-0.028041,-1.372138
2025-01-15T10:00:57.320Z,-0.028821,-0.010233,-1.457739
2025-01-15T10:00:57.360Z,0.019816,-0.015314,-0.893273
2025-01-15T10:00:57.400Z,0.015186,-0.003712,-0.937778
2025-01-15T10:00:57.440Z,0.040819,-0.014836,-0.375604
2025-01-15T10:00:57.480Z,0.001174,0.04341,-1.605076
2025-01-15T10:00:57.520Z,0.010323,-0.033795,-1.158026
2025-01-15T10:00:57.560Z,-0.014094,0.015347,-1.028278
2025-01-15T10:00:57.600Z,-0.023122,0.005223,-0.804793
2025-01-15T10:00:57.640Z,0.018398,-0.015575,-1.315904
2025-01-15T10:00:57.680Z,-0.001549,0.009571,-0.896285
2025-01-15T10:00:57.720Z,0.003597,0.011483,-1.522268
2025-01-15T10:00:57.760Z,0.003324,-0.016191,-0.481084
2025-01-15T10:00:57.800Z,-0.026868,-0.003333,-1.264107
2025-01-15T10:00:57.840Z,-0.009321,0.006654,-1.151395
2025-01-15T10:00:57.880Z,-0.008933,0.011074,-1.045202
2025-01-15T10:00:57.920Z,0.04131,0.03848,-1.261138
2025-01-15T10:00:57.960Z,0.02744,0.006265,-1.084385
2025-01-15T10:00:58.000Z,0.018756,-0.016149,-1.602225
2025-01-15T10:00:58.040Z,0.02503,-0.004241,-1.330777
2025-01-15T10:00:58.080Z,-0.016755,-0.00982,-1.318664
2025-01-15T10:00:58.120Z,0.016092,0.00355,-0.447244
2025-01-15T10:00:58.160Z,-0.002554,0.003569,-1.078968
2025-01-15T10:00:58.200Z,0.026344,-0.019275,-1.011777
2025-01-15T10:00:58.240Z,-0.00339,0.003496,-0.695457
2025-01-15T10:00:58.280Z,0.021259,-0.002177,-1.360526
2025-01-15T10:00:58.320Z,-0.003335,0.038159,-1.455952
2025-01-15T10:00:58.360Z,-0.005126,0.042959,-1.177709
2025-01-15T10:00:58.400Z,-0.005876,0.005225,-0.909597
2025-01-15T10:00:58.440Z,-0.009838,0.000988,-0.786639
2025-01-15T10:00:58.480Z,0.000274,0.026892,-1.098832
2025-01-15T10:00:58.520Z,-0.012261,0.00379,-0.839927
2025-01-15T10:00:58.560Z,0.009405,0.023109,-0.77422
2025-01-15T10:00:58.600Z,0.016603,-0.034097,-1.037745
2025-01-15T10:00:58.640Z,0.012929,0.019047,-0.708112
2025-01-15T10:00:58.680Z,0.016364,0.005951,-1.271157
2025-01-15T10:00:58.720Z,0.016298,-0.004651,-0.560655
2025-01-15T10:00:58.760Z,0.032241,0.013928,-0.956411
2025-01-15T10:00:58.800Z,-0.011864,-0.002002,-1.275515
2025-01-15T10:00:58.840Z,-0.039548,-0.037452,-0.729707
2025-01-15T10:00:58.880Z,0.009635,-0.01177,-1.249293
2025-01-15T10:00:58.920Z,0.01338,-0.016915,-1.399162
2025-01-15T10:00:58.960Z,0.012988,-0.025315,-0.023395
2025-01-15T10:00:59.000Z,-0.005291,0.021961,-1.21036
2025-01-15T10:00:59.040Z,-0.004803,0.015849,-0.682554
2025-01-15T10:00:59.080Z,-0.007405,-0.044264,-0.910663
2025-01-15T10:00:59.120Z,-0.425008,0.01559,-1.773921
2025-01-15T10:00:59.160Z,-0.007275,0.009516,-0.597525
2025-01-15T10:00:59.200Z,-0.000235,-0.005784,-1.23283
2025-01-15T10:00:59.240Z,0.019293,-0.025853,-1.452205
2025-01-15T10:00:59.280Z,0.015392,0.055169,-1.037603
2025-01-15T10:00:59.320Z,0.035385,-0.022598,-0.820942
2025-01-15T10:00:59.360Z,-0.699295,-0.037519,-0.888353
2025-01-15T10:00:59.400Z,-0.005073,-0.017505,-1.533399
2025-01-15T10:00:59.440Z,0.022143,0.002592,-1.389882
2025-01-15T10:00:59.480Z,-0.00811,0.015184,-1.138867
2025-01-15T10:00:59.520Z,-0.038529,0.015506,-0.553105
2025-01-15T10:00:59.560Z,0.034395,0.015813,-1.148095
2025-01-15T10:00:59.600Z,-0.007645,0.004966,-0.981626
2025-01-15T10:00:59.640Z,0.011267,-0.022856,-1.195539
2025-01-15T10:00:59.680Z,-0.016648,-0.008232,-0.412083
2025-01-15T10:00:59.720Z,-0.009804,0.015536,-1.276065
2025-01-15T10:00:59.760Z,-0.012351,0.007049,-1.066287
2025-01-15T10:00:59.800Z,0.033422,0.027192,-1.321171
2025-01-15T10:00:59.840Z,0.033021,-0.006145,-0.893506
2025-01-15T10:00:59.880Z,0.012325,0.017017,-1.148779
2025-01-15T10:00:59.920Z,-0.022063,-0.002131,-1.775314
2025-01-15T10:00:59.960Z,-0.011756,0.005137,-1.18889
2025-01-15T10:01:00.000Z,0.014301,-0.024076,-1.0819
2025-01-15T10:01:00.040Z,-0.009239,-0.030645,-0.82317
2025-01-15T10:01:00.080Z,0.015964,0.02486,-0.740735
2025-01-15T10:01:00.120Z,0.018109,0.001016,-0.851247
2025-01-15T10:01:00.160Z,0.022276,-0.01358,-0.884944
2025-01-15T10:01:00.200Z,0.007653,0.005763,-1.568439
2025-01-15T10:01:00.240Z,-0.008272,-0.009944,-0.527349
2025-01-15T10:01:00.280Z,0.000679,0.00459,-1.235012
2025-01-15T10:01:00.320Z,-0.009079,0.056131,-1.199579
2025-01-15T10:01:00.360Z,4.2e-05,0.02616,-0.906812
2025-01-15T10:01:00.400Z,-0.028398,0.031786,-1.341458
2025-01-15T10:01:00.440Z,-0.003952,-0.018448,-0.640174
2025-01-15T10:01:00.480Z,-0.022881,0.01798,-1.273856
2025-01-15T10:01:00.520Z,-0.004639,0.022075,-0.677662
2025-01-15T10:01:00.560Z,0.026621,-0.025317,-0.975719
2025-01-15T10:01:00.600Z,0.027092,-0.009844,-0.859288
2025-01-15T10:01:00.640Z,0.009356,-0.011897,-0.914611
2025-01-15T10:01:00.680Z,-0.016084,0.000644,-1.208863
2025-01-15T10:01:00.720Z,-0.001105,0.599475,-0.682435
2025-01-15T10:01:00.760Z,-0.00828,0.040081,-1.406218
2025-01-15T10:01:00.800Z,0.008013,-0.031505,-0.948633
2025-01-15T10:01:00.840Z,0.023177,-0.012653,-1.03403
2025-01-15T10:01:00.880Z,0.00545,-0.005067,-0.776728
2025-01-15T10:01:00.920Z,-0.047396,0.01553,-1.358962
2025-01-15T10:01:00.960Z,-0.007422,-0.014933,-1.848588
2025-01-15T10:01:01.000Z,-0.010719,0.000447,-1.171335
2025-01-15T10:01:01.040Z,0.00375,-0.010989,-1.59135
2025-01-15T10:01:01.080Z,-0.036746,-0.004992,-0.383507
2025-01-15T10:01:01.120Z,0.00057,0.02094,-0.914359
2025-01-15T10:01:01.160Z,-0.00879,0.002518,-1.437878
2025-01-15T10:01:01.200Z,-0.007018,0.019605,-0.892791
2025-01-15T10:01:01.240Z,-0.027825,-0.018737,-1.086094
2025-01-15T10:01:01.280Z,-0.003161,-0.004299,-0.619263
2025-01-15T10:01:01.320Z,-0.016762,0.016403,-1.373116
2025-01-15T10:01:01.360Z,0.000138,0.009023,-0.893846
2025-01-15T10:01:01.400Z,-0.005912,0.017438,-0.926901
2025-01-15T10:01:01.440Z,0.621771,0.015775,-0.311597
2025-01-15T10:01:01.480Z,-0.032468,-0.001402,-1.389678
2025-01-15T10:01:01.520Z,0.00394,0.002426,-1.041897
2025-01-15T10:01:01.560Z,-0.027803,-0.049052,-1.438847
2025-01-15T10:01:01.600Z,-0.035423,-0.02053,-1.137969
2025-01-15T10:01:01.640Z,0.018974,0.006322,-1.163461
2025-01-15T10:01:01.680Z,0.00642,-0.010347,-0.593129
2025-01-15T10:01:01.720Z,-0.007011,-0.015744,-0.947959
2025-01-15T10:01:01.760Z,0.010492,0.025356,-1.114961
2025-01-15T10:01:01.800Z,0.041339,-0.04638,-1.25961
2025-01-15T10:01:01.840Z,0.016008,-0.015316,-1.152915
2025-01-15T10:01:01.880Z,0.041261,0.019412,-0.809096
2025-01-15T10:01:01.920Z,0.758336,0.003839,-0.697164
2025-01-15T10:01:01.960Z,0.008389,-0.00295,-1.313821
2025-01-15T10:01:02.000Z,-0.004524,-0.017772,-1.107832
2025-01-15T10:01:02.040Z,0.007897,0.002563,-1.425424
2025-01-15T10:01:02.080Z,-0.005783,0.007684,-0.566913
2025-01-15T10:01:02.120Z,0.007978,0.761739,-1.505404
2025-01-15T10:01:02.160Z,0.018313,0.022482,-1.367613
2025-01-15T10:01:02.200Z,-0.013045,0.02201,-0.970373
2025-01-15T10:01:02.240Z,-0.030521,-0.012031,-1.577879
2025-01-15T10:01:02.280Z,0.000751,-0.001666,-0.854268
2025-01-15T10:01:02.320Z,-0.030572,-0.022675,-1.432003
2025-01-15T10:01:02.360Z,0.035508,-0.015487,-0.887801
2025-01-15T10:01:02.400Z,-0.009777,0.015433,-0.779982
2025-01-15T10:01:02.440Z,-0.026085,0.013915,-0.550301
2025-01-15T10:01:02.480Z,0.006078,-0.015647,-1.234541
2025-01-15T10:01:02.520Z,-0.001155,0.048872,-1.155951
2025-01-15T10:01:02.560Z,0.04077,-0.050149,-0.968737
2025-01-15T10:01:02.600Z,-0.000412,-0.625267,-1.085218
2025-01-15T10:01:02.640Z,-0.019665,0.024383,-0.665946
2025-01-15T10:01:02.680Z,0.028611,-0.008033,-0.512468
2025-01-15T10:01:02.720Z,0.021184,0.003042,-0.925448
2025-01-15T10:01:02.760Z,-0.043225,-0.011928,-1.048419
2025-01-15T10:01:02.800Z,-0.003016,-0.001346,-1.039454
2025-01-15T10:01:02.840Z,-0.011741,-0.015567,-1.320699
2025-01-15T10:01:02.880Z,0.004933,0.003841,-1.139746
2025-01-15T10:01:02.920Z,0.012925,-0.011981,-1.370391
2025-01-15T10:01:02.960Z,-0.003378,-0.023126,-0.799114
2025-01-15T10:01:03.000Z,0.012747,-0.002265,-1.740601
2025-01-15T10:01:03.040Z,0.038554,-0.011514,-1.132898
2025-01-15T10:01:03.080Z,0.006025,-0.035746,-0.997996
2025-01-15T10:01:03.120Z,0.008993,0.034157,-1.155174
2025-01-15T10:01:03.160Z,0.00144,-0.009845,-1.007278
2025-01-15T10:01:03.200Z,0.011259,-0.008213,-0.716207
2025-01-15T10:01:03.240Z,-0.022838,0.010986,-1.379623
2025-01-15T10:01:03.280Z,-0.511974,-0.013383,-1.432694
2025-01-15T10:01:03.320Z,0.04719,-0.011503,-0.707499
2025-01-15T10:01:03.360Z,0.007657,0.002622,-0.607802
2025-01-15T10:01:03.400Z,-0.028402,-0.015173,-1.026527
2025-01-15T10:01:03.440Z,0.015873,-0.037169,-0.867732
2025-01-15T10:01:03.480Z,-0.01978,-0.014471,-1.181562
2025-01-15T10:01:03.520Z,0.012888,0.030119,-1.442852
2025-01-15T10:01:03.560Z,0.040442,0.021183,-1.11287
2025-01-15T10:01:03.600Z,0.004984,-0.028782,-1.231791
2025-01-15T10:01:03.640Z,-0.020686,0.002801,-1.142878
2025-01-15T10:01:03.680Z,-0.034207,0.000265,-0.681088
2025-01-15T10:01:03.720Z,-0.017977,0.02063,-0.978719
2025-01-15T10:01:03.760Z,0.018239,-0.064596,-0.867875
2025-01-15T10:01:03.800Z,-0.000958,0.020655,-0.502474
2025-01-15T10:01:03.840Z,0.025254,0.001114,-1.099065
2025-01-15T10:01:03.880Z,0.024255,-0.022657,-1.228751
2025-01-15T10:01:03.920Z,0.004567,-0.002131,-0.978059
2025-01-15T10:01:03.960Z,0.007764,0.003277,-0.65785
2025-01-15T10:01:04.000Z,0.020437,0.025376,-1.192432
2025-01-15T10:01:04.040Z,0.006451,-0.024132,-0.714337
2025-01-15T10:01:04.080Z,0.037456,0.00135,-0.890262
2025-01-15T10:01:04.120Z,0.037063,-0.004434,-0.954495
2025-01-15T10:01:04.160Z,-0.008651,-0.015808,-0.952999
2025-01-15T10:01:04.200Z,0.000961,0.02161,-0.514525
2025-01-15T10:01:04.240Z,0.011841,0.038887,-1.018645
2025-01-15T10:01:04.280Z,0.00964,-0.014866,-0.515403
2025-01-15T10:01:04.320Z,-0.001387,0.027096,-0.79925
2025-01-15T10:01:04.360Z,0.015955,-0.036475,-1.308451
2025-01-15T10:01:04.400Z,0.021658,-0.026086,-1.134434
2025-01-15T10:01:04.440Z,0.011636,0.010992,-1.119386
2025-01-15T10:01:04.480Z,-0.492576,0.006446,-1.34925
2025-01-15T10:01:04.520Z,0.008498,-0.020976,-0.697804
2025-01-15T10:01:04.560Z,-0.015793,0.004965,-0.206001
2025-01-15T10:01:04.600Z,0.015777,-0.00756,-1.157798
2025-01-15T10:01:04.640Z,0.762334,-0.000596,-0.675419
2025-01-15T10:01:04.680Z,-0.035615,-0.020376,-0.810362
2025-01-15T10:01:04.720Z,0.005867,-0.042003,-0.804386
2025-01-15T10:01:04.760Z,-0.005894,0.006961,-1.01593
2025-01-15T10:01:04.800Z,-0.026938,-0.027912,-0.898657
2025-01-15T10:01:04.840Z,0.00962,0.016684,-1.439001
2025-01-15T10:01:04.880Z,0.007175,0.029492,-0.830818
2025-01-15T10:01:04.920Z,0.005639,0.00355,-1.750018
2025-01-15T10:01:04.960Z,-0.014691,0.025994,-1.391159
2025-01-15T10:01:05.000Z,-0.005823,0.021111,-0.665772
2025-01-15T10:01:05.040Z,0.002099,0.006326,-1.222478
2025-01-15T10:01:05.080Z,0.299388,0.156074,-1.235368
2025-01-15T10:01:05.120Z,0.810645,-0.011678,-1.001096
2025-01-15T10:01:05.160Z,-0.014527,-0.033432,-0.915917
2025-01-15T10:01:05.200Z,-0.0155,-0.039776,-0.899048
2025-01-15T10:01:05.240Z,0.023511,0.051716,-0.949733
2025-01-15T10:01:05.280Z,0.014828,0.019637,-0.685918
2025-01-15T10:01:05.320Z,-0.011682,-0.014531,-1.3109
2025-01-15T10:01:05.360Z,-0.008117,-0.006507,-1.041238
2025-01-15T10:01:05.400Z,-0.415109,-0.019964,-0.807475
2025-01-15T10:01:05.440Z,-0.007337,0.053038,-1.174926
2025-01-15T10:01:05.480Z,0.014104,-0.008055,-0.830911
2025-01-15T10:01:05.520Z,-0.011258,-0.008664,-1.467028
2025-01-15T10:01:05.560Z,0.031608,0.003311,-1.047461
2025-01-15T10:01:05.600Z,-0.03581,-0.015858,-1.109012
2025-01-15T10:01:05.640Z,-0.011139,-0.044577,-0.680421
2025-01-15T10:01:05.680Z,0.033729,-0.004018,-0.994386
2025-01-15T10:01:05.720Z,0.015862,0.013451,-0.432228
2025-01-15T10:01:05.760Z,-0.014685,-0.018585,-1.412876
2025-01-15T10:01:05.800Z,0.031024,-0.027812,-0.943703
2025-01-15T10:01:05.840Z,-0.004207,0.008254,-0.303225
2025-01-15T10:01:05.880Z,0.00637,-0.009441,-0.627281
2025-01-15T10:01:05.920Z,0.003558,0.019475,-0.5385
2025-01-15T10:01:05.960Z,-0.00975,-0.04925,-1.161569
2025-01-15T10:01:06.000Z,0.005855,-0.001133,-0.980591
2025-01-15T10:01:06.040Z,0.02801,-0.020269,-1.182755
2025-01-15T10:01:06.080Z,0.003512,-0.023793,-0.865088
2025-01-15T10:01:06.120Z,0.007177,-0.021333,-1.029736
2025-01-15T10:01:06.160Z,0.008215,0.005758,-0.836473
2025-01-15T10:01:06.200Z,-0.03484,-0.023559,-1.14861
2025-01-15T10:01:06.240Z,0.023761,0.009423,-1.091952
2025-01-15T10:01:06.280Z,-0.007341,-0.010341,-0.904471
2025-01-15T10:01:06.320Z,0.034025,0.017406,-1.139032
2025-01-15T10:01:06.360Z,0.423381,0.018205,-1.142848
2025-01-15T10:01:06.400Z,-0.018387,-0.023535,-1.359743
2025-01-15T10:01:06.440Z,-0.065609,-0.013442,-0.62749
2025-01-15T10:01:06.480Z,-0.023973,0.006268,-0.683835
2025-01-15T10:01:06.520Z,0.015622,0.008472,-1.160222
2025-01-15T10:01:06.560Z,-0.012665,0.002266,-0.50793
2025-01-15T10:01:06.600Z,-0.000596,0.026335,-1.142316
2025-01-15T10:01:06.640Z,0.020677,0.026036,-1.015671
2025-01-15T10:01:06.680Z,-0.017389,-0.012093,-0.984679
2025-01-15T10:01:06.720Z,-0.002072,-0.015864,-1.15594
2025-01-15T10:01:06.760Z,-0.0221,-0.003279,-0.918801
2025-01-15T10:01:06.800Z,0.786705,-0.001861,-1.101697
2025-01-15T10:01:06.840Z,-0.012174,0.012815,-1.351084
2025-01-15T10:01:06.880Z,-0.030879,0.002842,-1.192964
2025-01-15T10:01:06.920Z,-0.516825,-0.010464,-0.826311
2025-01-15T10:01:06.960Z,-0.749249,0.005945,-1.141684
2025-01-15T10:01:07.000Z,0.012932,0.025427,-0.715408
2025-01-15T10:01:07.040Z,0.015154,0.022009,-0.92417
2025-01-15T10:01:07.080Z,0.015229,0.001512,-1.564567
2025-01-15T10:01:07.120Z,-0.021731,0.038026,-1.035973
2025-01-15T10:01:07.160Z,0.04148,-0.012923,-0.580196
2025-01-15T10:01:07.200Z,-0.02285,0.041463,-1.008628
2025-01-15T10:01:07.240Z,0.0163,0.002759,-0.912627
2025-01-15T10:01:07.280Z,-0.002991,-0.042625,-1.118436
2025-01-15T10:01:07.320Z,-0.011958,0.052328,-1.019964
2025-01-15T10:01:07.360Z,0.001793,-0.001285,-0.764435
2025-01-15T10:01:07.400Z,0.006545,0.014614,-1.506821
2025-01-15T10:01:07.440Z,-0.007298,-0.02061,-0.768128
2025-01-15T10:01:07.480Z,-0.036237,0.000708,-1.186454
2025-01-15T10:01:07.520Z,-0.038791,-0.015446,-1.060268
2025-01-15T10:01:07.560Z,-0.006159,-0.022393,-0.580669
2025-01-15T10:01:07.600Z,-0.029611,-0.009854,-1.355062
2025-01-15T10:01:07.640Z,0.040279,0.034889,-0.946917
2025-01-15T10:01:07.680Z,-0.007748,-0.593957,-1.131179
2025-01-15T10:01:07.720Z,0.019354,0.011043,-1.914988
2025-01-15T10:01:07.760Z,-0.005764,0.018331,-0.96136
2025-01-15T10:01:07.800Z,0.00767,0.003726,-0.830315
2025-01-15T10:01:07.840Z,-0.037066,-0.009054,-1.090223
2025-01-15T10:01:07.880Z,-0.007137,0.008142,-1.259473
2025-01-15T10:01:07.920Z,0.045894,-0.040645,-1.472096
2025-01-15T10:01:07.960Z,0.025762,0.008704,-0.646041
2025-01-15T10:01:08.000Z,-0.001163,-0.028303,-1.16558
2025-01-15T10:01:08.040Z,0.000982,0.028858,-0.992473
2025-01-15T10:01:08.080Z,0.007326,0.02178,-0.732734
2025-01-15T10:01:08.120Z,0.012662,0.006212,-0.937498
2025-01-15T10:01:08.160Z,0.011112,-0.012551,-0.723333
2025-01-15T10:01:08.200Z,-0.011461,-0.023231,-1.070724
2025-01-15T10:01:08.240Z,-0.0446,0.010962,-0.994565
2025-01-15T10:01:08.280Z,-0.016652,4.2e-05,-1.196155
2025-01-15T10:01:08.320Z,-0.012289,0.007993,-0.802782
2025-01-15T10:01:08.360Z,0.021968,-0.010126,-1.277685
2025-01-15T10:01:08.400Z,0.025733,0.014707,-0.919468
2025-01-15T10:01:08.440Z,-0.032897,-0.005136,-0.779342
2025-01-15T10:01:08.480Z,-0.003177,-0.039945,-1.170604
2025-01-15T10:01:08.520Z,0.000179,0.011692,-0.888093
2025-01-15T10:01:08.560Z,0.04437,-0.021155,-1.06984
2025-01-15T10:01:08.600Z,-0.006787,-0.017608,-1.127518
2025-01-15T10:01:08.640Z,-0.025884,-0.005307,-0.865464
2025-01-15T10:01:08.680Z,0.002026,-0.020024,-0.655167
2025-01-15T10:01:08.720Z,0.011224,-0.003651,-1.236513
2025-01-15T10:01:08.760Z,0.038559,0.007445,-1.066679
2025-01-15T10:01:08.800Z,0.017907,0.033008,-0.450979
2025-01-15T10:01:08.840Z,0.010166,-0.036227,-0.333888
2025-01-15T10:01:08.880Z,0.011969,-0.002509,-1.360484
2025-01-15T10:01:08.920Z,0.024259,-0.003528,-0.491054
2025-01-15T10:01:08.960Z,-0.009936,-0.017025,-1.003417
2025-01-15T10:01:09.000Z,-0.026678,0.018498,-1.674561
2025-01-15T10:01:09.040Z,0.0095,-0.00751,-0.935281
2025-01-15T10:01:09.080Z,-0.009533,-0.030317,-1.260917
2025-01-15T10:01:09.120Z,-0.004205,0.009423,-0.613578
2025-01-15T10:01:09.160Z,-0.015043,0.008122,-1.440544
2025-01-15T10:01:09.200Z,0.047624,0.007341,-0.621743
2025-01-15T10:01:09.240Z,-0.001219,-0.027327,-1.370377
2025-01-15T10:01:09.280Z,-0.00641,0.004543,-1.238868
2025-01-15T10:01:09.320Z,0.021457,0.023132,-0.824411
2025-01-15T10:01:09.360Z,-0.021544,0.004433,-0.970668
2025-01-15T10:01:09.400Z,-0.002577,-0.012956,-1.171289
2025-01-15T10:01:09.440Z,-0.007634,-0.001072,-0.969042
2025-01-15T10:01:09.480Z,0.007802,-0.000346,-0.453469
2025-01-15T10:01:09.520Z,0.012424,-0.021668,-0.823141
2025-01-15T10:01:09.560Z,0.003386,-0.04994,-0.724182
2025-01-15T10:01:09.600Z,0.001758,-0.024462,-0.95211
2025-01-15T10:01:09.640Z,-0.023147,0.018466,-1.009727
2025-01-15T10:01:09.680Z,-0.015655,0.03832,-0.852842
2025-01-15T10:01:09.720Z,0.027219,-0.012221,-1.216026
2025-01-15T10:01:09.760Z,-0.004007,-0.004347,-0.850624
2025-01-15T10:01:09.800Z,0.013383,0.024688,-1.369209
2025-01-15T10:01:09.840Z,0.003139,-0.016375,-1.65373
2025-01-15T10:01:09.880Z,0.011581,-0.009832,-1.489415
2025-01-15T10:01:09.920Z,-0.029234,-0.011666,-1.401393
2025-01-15T10:01:09.960Z,-0.003218,-0.004413,-1.455277
2025-01-15T10:01:10.000Z,-0.001835,-0.002174,-1.28905
2025-01-15T10:01:10.040Z,0.023444,0.017083,-0.972867
2025-01-15T10:01:10.080Z,0.001558,0.000393,-1.107367
2025-01-15T10:01:10.120Z,-0.003929,-0.020166,-1.357537
2025-01-15T10:01:10.160Z,0.009184,0.685042,-1.309405
2025-01-15T10:01:10.200Z,-0.001792,0.005769,-1.055464
2025-01-15T10:01:10.240Z,0.022337,0.006473,-0.87466
2025-01-15T10:01:10.280Z,-0.031449,0.006664,-0.790225
2025-01-15T10:01:10.320Z,0.006741,0.003119,-1.251974
2025-01-15T10:01:10.360Z,0.006572,0.035483,-0.876746
2025-01-15T10:01:10.400Z,-0.035295,0.000394,-0.928916
2025-01-15T10:01:10.440Z,0.008308,0.033743,-0.915726
2025-01-15T10:01:10.480Z,-0.024054,-0.003182,-1.029074
2025-01-15T10:01:10.520Z,-0.020855,-0.009037,-0.716883
2025-01-15T10:01:10.560Z,0.016016,-0.021199,-0.863171
2025-01-15T10:01:10.600Z,-0.002409,0.017525,-0.775555
2025-01-15T10:01:10.640Z,-0.034873,0.007902,-0.29441
2025-01-15T10:01:10.680Z,0.022138,0.423143,-0.498809
2025-01-15T10:01:10.720Z,-0.005805,0.004104,-0.872614
2025-01-15T10:01:10.760Z,-0.288583,-0.140193,-0.716341
2025-01-15T10:01:10.800Z,-0.037604,0.000278,-0.681157
2025-01-15T10:01:10.840Z,0.002004,0.00451,-1.080196
2025-01-15T10:01:10.880Z,-0.037881,0.028922,-1.346079
2025-01-15T10:01:10.920Z,-0.00087,0.006294,-0.686759
2025-01-15T10:01:10.960Z,0.01706,-0.015667,-0.743993
2025-01-15T10:01:11.000Z,0.018427,-0.03239,-0.746638
2025-01-15T10:01:11.040Z,-0.020094,0.016263,-0.539792
2025-01-15T10:01:11.080Z,0.014066,0.033217,-0.850609
2025-01-15T10:01:11.120Z,-0.015817,0.007422,-0.819345
2025-01-15T10:01:11.160Z,0.001301,0.04136,-0.55959
2025-01-15T10:01:11.200Z,0.008128,-0.000925,-1.276197
2025-01-15T10:01:11.240Z,0.006746,0.00078,-1.075267
2025-01-15T10:01:11.280Z,-0.012145,0.022668,-1.503895
2025-01-15T10:01:11.320Z,0.00726,-0.016328,-1.122587
2025-01-15T10:01:11.360Z,0.006576,-0.0149,-0.566339
2025-01-15T10:01:11.400Z,0.006908,0.016102,-0.890964
2025-01-15T10:01:11.440Z,0.018595,0.01437,-1.486482
2025-01-15T10:01:11.480Z,0.039579,0.012977,-1.129474
2025-01-15T10:01:11.520Z,0.015684,0.003581,-1.461972
2025-01-15T10:01:11.560Z,-0.005204,-0.026116,-1.232492
2025-01-15T10:01:11.600Z,-0.020817,-0.04452,-1.228014
2025-01-15T10:01:11.640Z,-0.012042,-0.006776,-0.666371
2025-01-15T10:01:11.680Z,-0.011619,0.04392,-0.963841
2025-01-15T10:01:11.720Z,-0.02133,-0.008249,-1.45329
2025-01-15T10:01:11.760Z,-0.013626,-0.008017,-0.792136
2025-01-15T10:01:11.800Z,0.019496,-0.006587,-1.350921
2025-01-15T10:01:11.840Z,0.021564,0.009129,-0.782215
2025-01-15T10:01:11.880Z,-0.028807,-0.029297,-1.49592
2025-01-15T10:01:11.920Z,0.014509,0.005974,-0.969739
2025-01-15T10:01:11.960Z,-0.006267,-0.007717,-1.365946
2025-01-15T10:01:12.000Z,-0.016985,0.010356,-0.98179
2025-01-15T10:01:12.040Z,-0.013687,-0.001349,-0.899519
2025-01-15T10:01:12.080Z,0.036787,-0.032289,-0.936888
2025-01-15T10:01:12.120Z,-0.002504,0.003362,-1.022506
2025-01-15T10:01:12.160Z,-0.002502,-0.001437,-1.179484
2025-01-15T10:01:12.200Z,0.031539,0.01081,-0.668188
2025-01-15T10:01:12.240Z,-0.012151,-0.004899,-0.92829
2025-01-15T10:01:12.280Z,-0.029558,3e-05,-1.113793
2025-01-15T10:01:12.320Z,-0.006164,-0.003115,-0.641879
2025-01-15T10:01:12.360Z,-0.001904,0.031573,-1.682939
2025-01-15T10:01:12.400Z,0.006954,0.007673,-0.915364
2025-01-15T10:01:12.440Z,-0.015076,0.019297,-0.99354
2025-01-15T10:01:12.480Z,0.008993,-0.018947,-1.269682
2025-01-15T10:01:12.520Z,-0.015905,-0.007238,-1.241646
2025-01-15T10:01:12.560Z,0.016567,-0.01025,-0.549276
2025-01-15T10:01:12.600Z,-6.6e-05,-0.036167,-1.804563
2025-01-15T10:01:12.640Z,-0.00232,0.687935,-1.1093
2025-01-15T10:01:12.680Z,-0.010547,0.005174,-1.126959
2025-01-15T10:01:12.720Z,-0.000922,-0.013399,-1.048641
2025-01-15T10:01:12.760Z,0.030027,0.018143,-1.424955
2025-01-15T10:01:12.800Z,0.017144,0.01561,-0.693411
2025-01-15T10:01:12.840Z,0.018723,-0.001844,-1.094074
2025-01-15T10:01:12.880Z,-0.009479,-0.00845,-1.513219
2025-01-15T10:01:12.920Z,-0.004193,-0.022439,-1.214302
2025-01-15T10:01:12.960Z,-0.024094,0.001239,-0.952286
2025-01-15T10:01:13.000Z,0.066311,-0.000208,-0.770661
2025-01-15T10:01:13.040Z,0.013547,0.012483,-1.145523
2025-01-15T10:01:13.080Z,-0.010914,0.032162,-1.14572
2025-01-15T10:01:13.120Z,-0.041445,-0.008251,-0.989833
2025-01-15T10:01:13.160Z,0.004248,-0.78917,-1.167579
2025-01-15T10:01:13.200Z,-0.016736,-0.008812,-0.873066
2025-01-15T10:01:13.240Z,-0.009191,0.003855,-0.971229
2025-01-15T10:01:13.280Z,-0.004124,-0.034696,-0.771185
2025-01-15T10:01:13.320Z,-0.010348,-0.003648,-0.551556
2025-01-15T10:01:13.360Z,-0.003446,-0.025866,-1.136434
2025-01-15T10:01:13.400Z,-0.011567,-0.004058,-0.085163
2025-01-15T10:01:13.440Z,0.013549,0.008521,-0.548053
2025-01-15T10:01:13.480Z,0.159829,0.522062,-1.607394
2025-01-15T10:01:13.520Z,0.038083,0.001465,-0.808858
2025-01-15T10:01:13.560Z,0.027156,-0.013668,-0.879488
2025-01-15T10:01:13.600Z,-0.02603,-0.006023,-0.809987
2025-01-15T10:01:13.640Z,-0.000485,-0.011887,-0.64059
2025-01-15T10:01:13.680Z,-0.009542,0.007142,-1.388884
2025-01-15T10:01:13.720Z,-0.025723,-0.016738,-1.496848
2025-01-15T10:01:13.760Z,-0.010769,0.016194,-0.87964
2025-01-15T10:01:13.800Z,0.029626,0.00123,-1.23222
2025-01-15T10:01:13.840Z,-0.037073,-0.00259,-0.79912
2025-01-15T10:01:13.880Z,0.004058,0.019323,-1.155877
2025-01-15T10:01:13.920Z,-0.025913,-0.007898,-1.177075
2025-01-15T10:01:13.960Z,-0.009428,0.029639,-0.826065
2025-01-15T10:01:14.000Z,0.001947,-0.001846,-0.757885
2025-01-15T10:01:14.040Z,-0.006686,0.012284,-1.799125
2025-01-15T10:01:14.080Z,0.019493,0.011416,-1.376602
2025-01-15T10:01:14.120Z,-0.004979,-0.00454,-0.786546
2025-01-15T10:01:14.160Z,0.029056,0.017956,-0.730865
2025-01-15T10:01:14.200Z,0.01715,-0.022262,-0.509536
2025-01-15T10:01:14.240Z,-0.005276,-0.004317,-1.161239
2025-01-15T10:01:14.280Z,-0.002675,0.030936,-0.570527
2025-01-15T10:01:14.320Z,-0.006964,0.021301,-1.15027
2025-01-15T10:01:14.360Z,-0.013052,0.007339,-1.300931
2025-01-15T10:01:14.400Z,-0.023078,0.016809,-0.838854
2025-01-15T10:01:14.440Z,0.020166,-0.011865,-1.178418
2025-01-15T10:01:14.480Z,-0.004825,0.007542,-0.956394
2025-01-15T10:01:14.520Z,-0.008085,-0.006569,-0.770205
2025-01-15T10:01:14.560Z,-0.019383,-0.020257,-0.819719
2025-01-15T10:01:14.600Z,0.012554,-0.020499,-1.436703
2025-01-15T10:01:14.640Z,0.018733,0.014599,-0.626301
2025-01-15T10:01:14.680Z,0.013506,-0.007308,-1.301236
2025-01-15T10:01:14.720Z,-0.021105,-0.016347,-1.317774
2025-01-15T10:01:14.760Z,0.012965,-0.007565,-0.447021
2025-01-15T10:01:14.800Z,-0.012396,0.034182,-0.451989
2025-01-15T10:01:14.840Z,-0.001011,-0.033694,-0.671862
2025-01-15T10:01:14.880Z,-0.009667,-0.00741,-0.882698
2025-01-15T10:01:14.920Z,-0.011018,-0.002348,-1.48503
2025-01-15T10:01:14.960Z,-0.003061,-0.036427,-1.319626
2025-01-15T10:01:15.000Z,-0.042043,0.023522,-1.183325
2025-01-15T10:01:15.040Z,0.004521,0.007501,-1.335991
2025-01-15T10:01:15.080Z,0.004713,0.004152,-1.143859
2025-01-15T10:01:15.120Z,0.002393,0.006063,-1.239365
2025-01-15T10:01:15.160Z,0.026793,0.016463,-0.901344
2025-01-15T10:01:15.200Z,0.003424,-0.022845,-1.182601
2025-01-15T10:01:15.240Z,0.012155,-0.044287,-0.827116
2025-01-15T10:01:15.280Z,0.041365,0.028052,-0.960073
2025-01-15T10:01:15.320Z,0.0222,-0.001882,-1.360104
2025-01-15T10:01:15.360Z,0.000397,0.009223,-0.924538
2025-01-15T10:01:15.400Z,0.019271,0.737056,-1.639242
2025-01-15T10:01:15.440Z,-0.036598,-0.002021,-1.342316
2025-01-15T10:01:15.480Z,-0.027479,0.019424,-1.405058
2025-01-15T10:01:15.520Z,0.010808,0.028115,-1.15112
2025-01-15T10:01:15.560Z,0.031745,0.022847,-0.777051
2025-01-15T10:01:15.600Z,0.003791,-0.025099,-1.113701
2025-01-15T10:01:15.640Z,0.006963,-0.017306,-0.969362
2025-01-15T10:01:15.680Z,-0.012193,-0.034332,-1.267776
2025-01-15T10:01:15.720Z,-0.0202,-0.020275,-1.046352
2025-01-15T10:01:15.760Z,0.035132,-0.682039,-1.122655
2025-01-15T10:01:15.800Z,0.007623,0.006323,-1.05101
2025-01-15T10:01:15.840Z,0.02637,-0.009869,-0.759336
2025-01-15T10:01:15.880Z,-0.015904,0.004802,-1.721709
2025-01-15T10:01:15.920Z,0.022504,0.018159,-1.018426
2025-01-15T10:01:15.960Z,-0.005782,0.001637,-1.080451
2025-01-15T10:01:16.000Z,-0.000566,-0.009803,-1.076417
2025-01-15T10:01:16.040Z,-0.016618,-0.033069,-1.287898
2025-01-15T10:01:16.080Z,0.019657,-0.039684,-0.983256
2025-01-15T10:01:16.120Z,0.022885,0.017435,-1.372817
2025-01-15T10:01:16.160Z,-0.050704,-0.019098,-1.11048
2025-01-15T10:01:16.200Z,-0.021576,-0.0264,-1.713552
2025-01-15T10:01:16.240Z,0.024188,0.01856,-0.228777
2025-01-15T10:01:16.280Z,-0.000553,-0.025946,-1.236563
2025-01-15T10:01:16.320Z,0.004949,0.010833,-0.482088
2025-01-15T10:01:16.360Z,-0.015445,-0.004133,-0.874114
2025-01-15T10:01:16.400Z,-0.008976,0.033302,-1.283992
2025-01-15T10:01:16.440Z,-0.004011,-0.014161,-0.834779
2025-01-15T10:01:16.480Z,-0.020198,-0.008478,-0.843747
2025-01-15T10:01:16.520Z,-0.010396,-0.002534,-0.843831
2025-01-15T10:01:16.560Z,-0.017985,-0.011319,-1.201681
2025-01-15T10:01:16.600Z,-0.015365,0.018028,-1.351539
2025-01-15T10:01:16.640Z,-0.000718,0.004049,-0.898044
2025-01-15T10:01:16.680Z,-0.015507,-0.016824,-1.024008
2025-01-15T10:01:16.720Z,-0.034257,0.002154,-0.894565
2025-01-15T10:01:16.760Z,-0.010534,-0.001858,-0.965653
2025-01-15T10:01:16.800Z,-0.016524,-0.016673,-1.067937
2025-01-15T10:01:16.840Z,0.008048,-0.024117,-0.897435
2025-01-15T10:01:16.880Z,0.033751,-0.009523,-1.115934
2025-01-15T10:01:16.920Z,-0.037126,0.020084,-1.004227
2025-01-15T10:01:16.960Z,-0.048346,0.007716,-0.692865
2025-01-15T10:01:17.000Z,0.002806,0.010808,-1.288481
2025-01-15T10:01:17.040Z,0.02168,0.006388,-0.963838
2025-01-15T10:01:17.080Z,-0.008943,0.007159,-0.766173
2025-01-15T10:01:17.120Z,-0.031376,-0.02655,-0.86567
2025-01-15T10:01:17.160Z,0.009092,-0.003687,-1.08798
2025-01-15T10:01:17.200Z,0.023618,-0.000643,-0.762241
2025-01-15T10:01:17.240Z,-0.013827,-0.005792,-0.803833
2025-01-15T10:01:17.280Z,0.002482,0.560488,-0.946859
2025-01-15T10:01:17.320Z,0.00658,0.020254,-0.881985
2025-01-15T10:01:17.360Z,0.021555,-0.017921,-1.602323
2025-01-15T10:01:17.400Z,-0.004589,-0.007559,-1.402612
2025-01-15T10:01:17.440Z,-0.028803,0.021353,-1.338424
2025-01-15T10:01:17.480Z,0.025689,0.008169,0.253025
2025-01-15T10:01:17.520Z,-0.004681,-0.002277,-0.901091
2025-01-15T10:01:17.560Z,0.00248,-0.004825,-1.026173
2025-01-15T10:01:17.600Z,-0.026713,-0.016329,-1.116597
2025-01-15T10:01:17.640Z,0.025846,0.03573,-1.1144
2025-01-15T10:01:17.680Z,0.015827,0.001836,-0.729167
2025-01-15T10:01:17.720Z,-0.008495,0.002844,-1.682004
2025-01-15T10:01:17.760Z,0.038351,0.026168,-0.778098
2025-01-15T10:01:17.800Z,0.001741,0.009393,-1.369952
2025-01-15T10:01:17.840Z,-0.014856,-0.018529,-1.124493
2025-01-15T10:01:17.880Z,1.3e-05,-0.018838,-0.570998
2025-01-15T10:01:17.920Z,0.028656,-0.044916,-0.764372
2025-01-15T10:01:17.960Z,0.039898,-0.015757,-0.540335
2025-01-15T10:01:18.000Z,0.012249,0.004188,-0.762633
2025-01-15T10:01:18.040Z,0.008278,-0.025208,-1.386437
2025-01-15T10:01:18.080Z,0.0083,0.010454,-1.230695
2025-01-15T10:01:18.120Z,0.00414,0.02662,-1.395307
2025-01-15T10:01:18.160Z,-0.02239,-0.002804,-0.867659
2025-01-15T10:01:18.200Z,0.001569,0.013587,-1.052559
2025-01-15T10:01:18.240Z,-0.676997,-0.023897,-1.023037
2025-01-15T10:01:18.280Z,0.00618,-0.005898,-0.97093
2025-01-15T10:01:18.320Z,-0.038705,-0.009004,-0.907006
2025-01-15T10:01:18.360Z,0.003137,0.003574,-0.447443
2025-01-15T10:01:18.400Z,0.047017,0.015476,-1.097313
2025-01-15T10:01:18.440Z,0.001678,0.011528,-1.356723
2025-01-15T10:01:18.480Z,-0.003046,0.033137,-1.187179
2025-01-15T10:01:18.520Z,-0.003529,0.014267,-0.982617
2025-01-15T10:01:18.560Z,0.017671,0.019351,-0.927091
2025-01-15T10:01:18.600Z,0.023887,0.011318,-1.11612
2025-01-15T10:01:18.640Z,0.01519,0.03169,-0.744
2025-01-15T10:01:18.680Z,-0.037475,-0.028713,-1.004154
2025-01-15T10:01:18.720Z,0.018213,-0.011718,-1.021046
2025-01-15T10:01:18.760Z,-0.006699,0.010416,-0.981522
2025-01-15T10:01:18.800Z,0.001936,-0.026255,-0.858706
2025-01-15T10:01:18.840Z,0.025357,-0.013582,-0.674324
2025-01-15T10:01:18.880Z,0.001242,0.474133,-1.159791
2025-01-15T10:01:18.920Z,0.019962,0.004964,-1.346641
2025-01-15T10:01:18.960Z,0.018581,0.004446,-0.544905
2025-01-15T10:01:19.000Z,0.70968,-0.00679,-0.823726
2025-01-15T10:01:19.040Z,0.016239,-0.02151,-1.235375
2025-01-15T10:01:19.080Z,-0.004594,0.002977,-0.958833
2025-01-15T10:01:19.120Z,-0.472153,0.01567,-0.759647
2025-01-15T10:01:19.160Z,-0.023642,0.011939,-0.794555
2025-01-15T10:01:19.200Z,0.013286,0.020729,-0.711359
2025-01-15T10:01:19.240Z,-0.033892,-0.033245,-1.62708
2025-01-15T10:01:19.280Z,-0.034498,0.023793,-0.875424
2025-01-15T10:01:19.320Z,-0.019209,0.030231,-1.355106
2025-01-15T10:01:19.360Z,0.027872,0.019293,-0.955485
2025-01-15T10:01:19.400Z,-0.002996,0.03665,-1.724238
2025-01-15T10:01:19.440Z,-0.0028,0.02066,-0.763072
2025-01-15T10:01:19.480Z,-0.023733,-0.005054,-1.219076
2025-01-15T10:01:19.520Z,-0.01193,-0.003937,-0.821653
2025-01-15T10:01:19.560Z,0.018989,-0.028195,-1.784733
2025-01-15T10:01:19.600Z,-0.017259,-0.008572,-0.922094
2025-01-15T10:01:19.640Z,0.002777,0.038694,-0.35857
2025-01-15T10:01:19.680Z,0.039147,-0.023076,-0.135669
2025-01-15T10:01:19.720Z,-0.001389,-0.031156,-1.57238
2025-01-15T10:01:19.760Z,-0.00315,0.003547,-0.58702
2025-01-15T10:01:19.800Z,-0.035451,0.012716,-1.154663
2025-01-15T10:01:19.840Z,0.016297,0.037902,-0.982589
2025-01-15T10:01:19.880Z,-0.012835,-0.014836,-1.758125
2025-01-15T10:01:19.920Z,-0.014819,0.007075,-0.768572
2025-01-15T10:01:19.960Z,-0.004921,-0.005001,-0.751573
2025-01-15T10:01:20.000Z,0.002455,0.008921,-1.181787
2025-01-15T10:01:20.040Z,-0.009203,-0.015892,-0.882703
2025-01-15T10:01:20.080Z,-0.026143,0.02461,-0.812057
2025-01-15T10:01:20.120Z,0.608654,0.008513,-1.321009
2025-01-15T10:01:20.160Z,-0.014796,-0.035974,-0.810796
2025-01-15T10:01:20.200Z,-0.002079,0.013855,-0.932669
2025-01-15T10:01:20.240Z,-0.041984,0.028578,-0.31951
2025-01-15T10:01:20.280Z,0.007367,-0.021076,-1.207163
2025-01-15T10:01:20.320Z,0.002586,-0.047275,-1.082237
2025-01-15T10:01:20.360Z,0.023107,-0.030632,-0.986904
2025-01-15T10:01:20.400Z,0.004237,0.016427,-1.239481
2025-01-15T10:01:20.440Z,-0.027797,0.021683,-1.125693
2025-01-15T10:01:20.480Z,-0.016147,0.01392,-1.996132
2025-01-15T10:01:20.520Z,-0.014246,-0.000938,-1.4795
2025-01-15T10:01:20.560Z,-0.037471,-0.004532,-1.197888
2025-01-15T10:01:20.600Z,-0.03258,0.028124,-0.615987
2025-01-15T10:01:20.640Z,0.001906,0.018279,-0.902526
2025-01-15T10:01:20.680Z,-0.00333,-0.002852,-1.584692
2025-01-15T10:01:20.720Z,-0.01254,-0.025182,-1.211584
2025-01-15T10:01:20.760Z,0.000406,0.00345,-1.304233
2025-01-15T10:01:20.800Z,-0.050984,-0.00559,-1.282236
2025-01-15T10:01:20.840Z,0.015501,0.020282,-1.38167
2025-01-15T10:01:20.880Z,-0.020537,0.017077,-0.947525
2025-01-15T10:01:20.920Z,0.012339,-0.02075,-1.172102
2025-01-15T10:01:20.960Z,0.028393,-0.015184,-1.264811
2025-01-15T10:01:21.000Z,0.010753,0.027447,-1.053821
2025-01-15T10:01:21.040Z,-0.014785,-0.022725,-1.701591
2025-01-15T10:01:21.080Z,0.029184,-0.025625,-1.285104
2025-01-15T10:01:21.120Z,0.031022,0.004304,-0.659205
2025-01-15T10:01:21.160Z,-0.03462,-0.008834,-1.159211
2025-01-15T10:01:21.200Z,0.122868,0.667575,-1.492903
2025-01-15T10:01:21.240Z,-0.007524,-0.024159,-1.00001
2025-01-15T10:01:21.280Z,0.012975,-0.01231,-0.795857
2025-01-15T10:01:21.320Z,-0.016736,0.029894,-1.086243
2025-01-15T10:01:21.360Z,-0.026738,0.015528,-1.342568
2025-01-15T10:01:21.400Z,-0.023626,-0.000377,-1.097618
2025-01-15T10:01:21.440Z,0.004509,-0.002262,-1.753198
2025-01-15T10:01:21.480Z,0.005776,0.009453,-1.473771
2025-01-15T10:01:21.520Z,-0.012363,0.009838,-1.209879
2025-01-15T10:01:21.560Z,0.026775,-0.000558,-1.316105
2025-01-15T10:01:21.600Z,-0.023839,0.014659,-1.477388
2025-01-15T10:01:21.640Z,-0.046264,-0.000148,-1.062678
2025-01-15T10:01:21.680Z,0.004214,-0.004189,-1.534758
2025-01-15T10:01:21.720Z,-0.043544,-0.003632,0.037802
2025-01-15T10:01:21.760Z,-0.000301,-0.024066,-1.360044
2025-01-15T10:01:21.800Z,-0.020682,0.007337,-1.069709
2025-01-15T10:01:21.840Z,-0.02293,-0.007416,-1.109999
2025-01-15T10:01:21.880Z,0.014326,-0.020413,-1.113102
2025-01-15T10:01:21.920Z,-0.004766,-0.015503,-1.141172
2025-01-15T10:01:21.960Z,0.023281,0.014994,-1.095083
2025-01-15T10:01:22.000Z,0.007726,0.013917,-0.959802
2025-01-15T10:01:22.040Z,-0.006694,-0.025192,-1.264234
2025-01-15T10:01:22.080Z,0.004277,0.007169,-1.172641
2025-01-15T10:01:22.120Z,-0.009557,-0.022802,-0.565025
2025-01-15T10:01:22.160Z,-0.009206,0.024354,-0.336438
2025-01-15T10:01:22.200Z,-0.013605,0.008811,-0.67368
2025-01-15T10:01:22.240Z,0.027272,0.016182,-1.538659
2025-01-15T10:01:22.280Z,0.019526,-0.008213,-0.949782
2025-01-15T10:01:22.320Z,-0.028664,0.027996,-1.390801
2025-01-15T10:01:22.360Z,0.043951,-0.008412,-0.895879
2025-01-15T10:01:22.400Z,0.00219,0.020596,-0.706367
2025-01-15T10:01:22.440Z,-0.010311,-0.004229,-0.872074
2025-01-15T10:01:22.480Z,0.007576,-0.043242,-1.320815
2025-01-15T10:01:22.520Z,-0.027707,0.05088,-1.222044
2025-01-15T10:01:22.560Z,-0.000632,0.005765,-1.249422
2025-01-15T10:01:22.600Z,0.031338,-0.004136,-0.644457
2025-01-15T10:01:22.640Z,0.005202,-0.030071,-0.806064
2025-01-15T10:01:22.680Z,-0.048153,-0.012219,-1.506609
2025-01-15T10:01:22.720Z,0.013712,0.062938,-0.619801
2025-01-15T10:01:22.760Z,-0.001088,0.032815,-0.891654
2025-01-15T10:01:22.800Z,-0.001077,-0.013972,-0.577108
2025-01-15T10:01:22.840Z,0.007328,-0.019681,-1.013955
2025-01-15T10:01:22.880Z,0.040606,-0.00434,-1.235442
2025-01-15T10:01:22.920Z,0.012295,-0.005793,-0.743743
2025-01-15T10:01:22.960Z,-0.806112,-0.005308,-0.876641
2025-01-15T10:01:23.000Z,-0.026489,0.000509,-0.9263
2025-01-15T10:01:23.040Z,-0.011035,-0.034001,-0.793258
2025-01-15T10:01:23.080Z,-0.003743,-0.039581,-0.862018
2025-01-15T10:01:23.120Z,-0.01451,-6.7e-05,-1.333274
2025-01-15T10:01:23.160Z,0.001311,-0.010895,-0.847751
2025-01-15T10:01:23.200Z,-0.018897,0.011476,-0.711632
2025-01-15T10:01:23.240Z,-0.014627,0.040013,-0.207578
2025-01-15T10:01:23.280Z,-0.030014,0.005309,-1.486558
2025-01-15T10:01:23.320Z,-0.018065,-0.05727,-1.502646
2025-01-15T10:01:23.360Z,-0.008991,-0.736528,-1.300003
2025-01-15T10:01:23.400Z,0.002085,-0.060303,-0.909681
2025-01-15T10:01:23.440Z,0.045796,0.023497,-0.675729
2025-01-15T10:01:23.480Z,0.0089,0.004042,-1.100938
2025-01-15T10:01:23.520Z,0.010166,0.000759,-0.950845
2025-01-15T10:01:23.560Z,0.004557,-0.025004,-1.093112
2025-01-15T10:01:23.600Z,0.014361,-0.010151,-1.368522
2025-01-15T10:01:23.640Z,-0.058733,0.006214,-0.841466
2025-01-15T10:01:23.680Z,-0.008632,-0.021108,-1.066167
2025-01-15T10:01:23.720Z,-0.010733,0.023893,-1.295568
2025-01-15T10:01:23.760Z,0.029213,0.005448,-0.761923
2025-01-15T10:01:23.800Z,0.029247,-0.003952,-1.528452
2025-01-15T10:01:23.840Z,-0.008761,-0.014155,-0.989632
2025-01-15T10:01:23.880Z,0.023724,0.004137,-0.727701
2025-01-15T10:01:23.920Z,0.02433,-0.037674,-1.542145
2025-01-15T10:01:23.960Z,-0.011452,-0.018437,-0.933495
2025-01-15T10:01:24.000Z,-0.023802,-0.051637,-1.10873
2025-01-15T10:01:24.040Z,-0.011233,0.00978,-0.736166
2025-01-15T10:01:24.080Z,-0.009232,-0.023014,-0.720369
2025-01-15T10:01:24.120Z,-0.034967,-0.031617,-1.129648
2025-01-15T10:01:24.160Z,0.000228,-0.00387,-1.130363
2025-01-15T10:01:24.200Z,0.000627,0.012142,-1.396747
2025-01-15T10:01:24.240Z,-0.007733,0.003098,-1.187713
2025-01-15T10:01:24.280Z,-0.020406,-0.019829,-0.75455
2025-01-15T10:01:24.320Z,0.012499,0.006104,-1.076152
2025-01-15T10:01:24.360Z,0.020895,0.004807,-0.718707
2025-01-15T10:01:24.400Z,-0.013049,0.016887,-0.653271
2025-01-15T10:01:24.440Z,-0.009878,-0.026712,-0.64107
2025-01-15T10:01:24.480Z,0.507655,-0.009467,-0.93728
2025-01-15T10:01:24.520Z,-0.00158,-0.005726,-0.899827
2025-01-15T10:01:24.560Z,-0.028356,0.022309,-0.723989
2025-01-15T10:01:24.600Z,0.021313,0.013442,-0.49312
2025-01-15T10:01:24.640Z,-0.002243,0.006364,-0.792961
2025-01-15T10:01:24.680Z,0.010088,-0.056212,-1.094657
2025-01-15T10:01:24.720Z,0.003586,-0.00391,-1.017119
2025-01-15T10:01:24.760Z,-0.004156,-0.021545,-0.926032
2025-01-15T10:01:24.800Z,-0.002143,0.664937,-1.291228
2025-01-15T10:01:24.840Z,0.006054,0.005671,-0.74899
2025-01-15T10:01:24.880Z,0.011824,0.008428,-1.057069
2025-01-15T10:01:24.920Z,-0.001935,0.006896,-0.759871
2025-01-15T10:01:24.960Z,-0.044174,-0.007884,-0.988154
2025-01-15T10:01:25.000Z,-0.016835,0.782047,-0.822508
2025-01-15T10:01:25.040Z,-0.53016,0.043407,-0.156006
2025-01-15T10:01:25.080Z,-0.010328,-0.015646,-0.651557
2025-01-15T10:01:25.120Z,-0.056017,0.012932,-0.722643
2025-01-15T10:01:25.160Z,0.026152,0.023416,-1.228523
2025-01-15T10:01:25.200Z,0.016852,0.000603,-0.897581
2025-01-15T10:01:25.240Z,0.014663,0.017816,-1.243088
2025-01-15T10:01:25.280Z,-0.011325,0.02698,-1.400217
2025-01-15T10:01:25.320Z,0.017379,0.017227,-1.233891
2025-01-15T10:01:25.360Z,-0.006324,0.010548,-1.218894
2025-01-15T10:01:25.400Z,-0.024298,0.016663,-0.976968
2025-01-15T10:01:25.440Z,-0.008622,0.030539,-1.287328
2025-01-15T10:01:25.480Z,0.009002,-0.006541,-1.254559
2025-01-15T10:01:25.520Z,-0.030621,0.017476,-1.368887
2025-01-15T10:01:25.560Z,0.047177,0.00209,-1.13731
2025-01-15T10:01:25.600Z,0.009862,0.013532,-0.97188
2025-01-15T10:01:25.640Z,0.024702,0.015153,-0.623085
2025-01-15T10:01:25.680Z,-0.014134,0.008512,-0.752771
2025-01-15T10:01:25.720Z,0.002754,0.00451,-1.344091
2025-01-15T10:01:25.760Z,0.609429,-0.00834,-1.044174
2025-01-15T10:01:25.800Z,0.006504,-0.012459,-1.026982
2025-01-15T10:01:25.840Z,-0.019753,0.006777,-0.834868
2025-01-15T10:01:25.880Z,-0.012657,0.019647,-0.536488
2025-01-15T10:01:25.920Z,0.600141,0.01535,-0.60255
2025-01-15T10:01:25.960Z,-0.011531,-0.013502,-1.262535
2025-01-15T10:01:26.000Z,0.042697,-0.017036,-1.264418
2025-01-15T10:01:26.040Z,-0.017174,-0.041173,-0.654195
2025-01-15T10:01:26.080Z,0.003998,0.036752,-1.389059
2025-01-15T10:01:26.120Z,-0.014899,-0.026938,-0.813635
2025-01-15T10:01:26.160Z,0.024605,-0.03132,-1.360867
2025-01-15T10:01:26.200Z,0.008526,-0.012382,-0.989925
2025-01-15T10:01:26.240Z,-0.015994,0.021012,-1.237849
2025-01-15T10:01:26.280Z,-0.02543,0.009869,-1.327257
2025-01-15T10:01:26.320Z,-0.005604,-0.002743,-0.920476
2025-01-15T10:01:26.360Z,0.004556,-0.004499,-1.480182
2025-01-15T10:01:26.400Z,-0.015749,-0.018912,-1.185596
2025-01-15T10:01:26.440Z,-0.013294,0.020744,-1.024825
2025-01-15T10:01:26.480Z,-0.017001,0.016505,-1.612885
2025-01-15T10:01:26.520Z,0.041483,0.003852,-0.805885
2025-01-15T10:01:26.560Z,0.034161,0.003787,-0.91676
2025-01-15T10:01:26.600Z,0.015958,-0.03623,-0.89655
2025-01-15T10:01:26.640Z,0.036338,-0.019605,-0.872637
2025-01-15T10:01:26.680Z,0.005249,0.004885,-0.944737
2025-01-15T10:01:26.720Z,-0.007484,0.013404,-1.201132
2025-01-15T10:01:26.760Z,-0.014241,0.011856,-0.899584
2025-01-15T10:01:26.800Z,0.015002,0.016313,-0.974635
2025-01-15T10:01:26.840Z,0.005157,0.013533,-1.159123
2025-01-15T10:01:26.880Z,-0.028581,-0.016672,-1.264124
2025-01-15T10:01:26.920Z,-0.006538,0.005139,-0.765717
2025-01-15T10:01:26.960Z,0.01133,-0.009706,-0.922974
2025-01-15T10:01:27.000Z,0.005664,-0.014458,-1.537244
2025-01-15T10:01:27.040Z,-0.006449,-0.011085,-1.179726
2025-01-15T10:01:27.080Z,0.00354,-0.041935,-1.077549
2025-01-15T10:01:27.120Z,-0.008193,-0.72519,-0.9208
2025-01-15T10:01:27.160Z,-0.009141,-0.02608,-1.112566
2025-01-15T10:01:27.200Z,-0.032836,-0.02563,-0.988398
2025-01-15T10:01:27.240Z,0.022006,-0.018945,-0.730318
2025-01-15T10:01:27.280Z,-0.005933,-0.001295,-1.31597
2025-01-15T10:01:27.320Z,0.788364,0.010432,-1.408066
2025-01-15T10:01:27.360Z,0.019172,-0.038604,-1.170876
2025-01-15T10:01:27.400Z,0.013652,-0.01265,-1.049683
2025-01-15T10:01:27.440Z,-0.001291,0.001252,-0.987823
2025-01-15T10:01:27.480Z,-0.017576,-0.002888,-1.137335
2025-01-15T10:01:27.520Z,0.021658,0.001417,-1.133204
2025-01-15T10:01:27.560Z,0.008401,-0.027512,-1.3508
2025-01-15T10:01:27.600Z,-0.009981,0.02258,-0.813981
2025-01-15T10:01:27.640Z,-0.611222,0.00087,-1.474733
2025-01-15T10:01:27.680Z,0.011065,0.025978,-0.978791
2025-01-15T10:01:27.720Z,-0.052166,-0.030536,-1.544697
2025-01-15T10:01:27.760Z,0.011851,-0.053822,-1.093229
2025-01-15T10:01:27.800Z,0.025975,-0.029844,-0.912855
2025-01-15T10:01:27.840Z,0.03711,-0.002726,-1.35321
2025-01-15T10:01:27.880Z,0.014636,-0.020456,-0.646321
2025-01-15T10:01:27.920Z,-0.039189,-5.9e-05,-0.890837
2025-01-15T10:01:27.960Z,-0.04759,0.021164,-0.980229
2025-01-15T10:01:28.000Z,-0.015891,-0.004677,-1.561581
2025-01-15T10:01:28.040Z,0.034812,-0.003225,-0.961678
2025-01-15T10:01:28.080Z,0.008481,0.018588,-0.888586
2025-01-15T10:01:28.120Z,-0.011123,0.000363,-0.966563
2025-01-15T10:01:28.160Z,0.002582,-0.005517,-0.964983
2025-01-15T10:01:28.200Z,-0.023422,0.014533,-1.223434
2025-01-15T10:01:28.240Z,0.013795,0.049432,-1.335113
2025-01-15T10:01:28.280Z,-0.010665,-0.003426,-1.016064
2025-01-15T10:01:28.320Z,-0.006289,0.008334,-1.571965
2025-01-15T10:01:28.360Z,-0.002211,-0.035393,-0.816379
2025-01-15T10:01:28.400Z,-0.004685,-0.015695,-0.494019
2025-01-15T10:01:28.440Z,0.00193,0.006661,-0.75459
2025-01-15T10:01:28.480Z,-0.028645,0.010948,-0.979432
2025-01-15T10:01:28.520Z,0.005599,0.016052,-1.215631
2025-01-15T10:01:28.560Z,-0.004785,-0.03427,-1.201359
2025-01-15T10:01:28.600Z,-0.006599,-0.008691,-1.032255
2025-01-15T10:01:28.640Z,-0.033531,-0.012643,-1.097896
2025-01-15T10:01:28.680Z,-0.013538,-0.003367,-1.257119
2025-01-15T10:01:28.720Z,0.41082,0.027386,-1.197606
2025-01-15T10:01:28.760Z,-0.009046,-0.01586,-0.430998
2025-01-15T10:01:28.800Z,0.045101,-0.000232,-1.154755
2025-01-15T10:01:28.840Z,0.00205,0.000179,-0.912616
2025-01-15T10:01:28.880Z,0.005685,0.006649,-1.075202
2025-01-15T10:01:28.920Z,-0.006264,-0.008307,-0.902411
2025-01-15T10:01:28.960Z,-0.009084,-0.048228,-1.332953
2025-01-15T10:01:29.000Z,-0.486038,0.010569,-1.491346
2025-01-15T10:01:29.040Z,0.005674,0.023562,-1.268186
2025-01-15T10:01:29.080Z,0.028625,-0.002572,-1.41686
2025-01-15T10:01:29.120Z,0.005459,0.024177,-1.611512
2025-01-15T10:01:29.160Z,-0.026147,0.012744,-1.241065
2025-01-15T10:01:29.200Z,0.005422,0.019447,-0.946402
2025-01-15T10:01:29.240Z,-0.014367,-0.042969,-0.949394
2025-01-15T10:01:29.280Z,0.002975,0.016515,-1.263572
